key_resp110.keys,participant,session,date,expName,psychopyVersion,OS,frameRate,example.thisRepN,example.thisTrialN,example.thisN,example.thisIndex,example.ran,stimuli_1,correct_resp1,stimuli_2,correct_resp2,stimuli_3,correct_resp3,stimuli_4,correct_resp4,stimuli_5,correct_resp5,stimuli_6,correct_resp6,time_3,time_6,shapes,block1_resp.keys,block1_resp.corr,PGNGS_B1.thisRepN,PGNGS_B1.thisTrialN,PGNGS_B1.thisN,PGNGS_B1.thisIndex,PGNGS_B1.ran,block1_resp.rt,block2_resp.keys,block2_resp.corr,PGNGS_B2.thisRepN,PGNGS_B2.thisTrialN,PGNGS_B2.thisN,PGNGS_B2.thisIndex,PGNGS_B2.ran,block2_resp.rt,block3_resp.keys,block3_resp.corr,PGNGS_B3.thisRepN,PGNGS_B3.thisTrialN,PGNGS_B3.thisN,PGNGS_B3.thisIndex,PGNGS_B3.ran,block3_resp.rt,block4_resp.keys,block4_resp.corr,PGNGS_B4.thisRepN,PGNGS_B4.thisTrialN,PGNGS_B4.thisN,PGNGS_B4.thisIndex,PGNGS_B4.ran,block4_resp.rt,block5_resp.keys,block5_resp.corr,PGNGS_B5.thisRepN,PGNGS_B5.thisTrialN,PGNGS_B5.thisN,PGNGS_B5.thisIndex,PGNGS_B5.ran,block5_resp.rt,block6_resp.keys,block6_resp.corr,PGNGS_B6.thisRepN,PGNGS_B6.thisTrialN,PGNGS_B6.thisN,PGNGS_B6.thisIndex,PGNGS_B6.ran,block6_resp.rt
,example3,1,2025-01-01_00h00.00.000,PGNGS_shapes_600ms_v11r1,2022.2.5,Win32,59.52380952,,,,,,,,,,,,,,,,,,,,,,,,,,,,,,,,,,,,,,,,,,,,,,,,,,,,,,,,,,,,,,,,,,,,
,example3,1,2025-01-01_00h00.00.000,PGNGS_shapes_600ms_v11r1,2022.2.5,Win32,59.52380952,,,,,,,,,,,,,,,,,,,,,,,,,,,,,,,,,,,,,,,,,,,,,,,,,,,,,,,,,,,,,,,,,,,,
,example3,1,2025-01-01_00h00.00.000,PGNGS_shapes_600ms_v11r1,2022.2.5,Win32,59.52380952,0,0,0,0,1,L_square.bmp,None,L_pentagon.bmp,None,L_pentagon.bmp,None,L_HalfOval.bmp,None,L_pentagon.bmp,None,L_parallelogram.bmp,None,0.6,0.6,L_parallelogram_t.bmp,,,,,,,,,,,,,,,,,,,,,,,,,,,,,,,,,,,,,,,,,,,,,,,,
,example3,1,2025-01-01_00h00.00.000,PGNGS_shapes_600ms_v11r1,2022.2.5,Win32,59.52380952,0,1,1,1,1,L_parallelogram.bmp,None,L_parallelogram.bmp,None,L_square.bmp,None,L_square.bmp,None,L_parallelogram.bmp,None,L_square.bmp,None,0.6,0.6,L_square_t.bmp,,,,,,,,,,,,,,,,,,,,,,,,,,,,,,,,,,,,,,,,,,,,,,,,
,example3,1,2025-01-01_00h00.00.000,PGNGS_shapes_600ms_v11r1,2022.2.5,Win32,59.52380952,0,2,2,2,1,L_circle.bmp,n,L_HalfOval.bmp,None,L_HalfOval.bmp,None,L_circle.bmp,n,L_square.bmp,None,L_HalfOval.bmp,None,0.6,0.6,L_pentagon_t.bmp,,,,,,,,,,,,,,,,,,,,,,,,,,,,,,,,,,,,,,,,,,,,,,,,
,example3,1,2025-01-01_00h00.00.000,PGNGS_shapes_600ms_v11r1,2022.2.5,Win32,59.52380952,0,3,3,3,1,L_HalfOval.bmp,None,L_diamond.bmp,n,L_diamond.bmp,n,L_square.bmp,None,L_parallelogram.bmp,None,L_triangle.bmp,n,0.6,0.6,L_triangle_t.bmp,,,,,,,,,,,,,,,,,,,,,,,,,,,,,,,,,,,,,,,,,,,,,,,,
,example3,1,2025-01-01_00h00.00.000,PGNGS_shapes_600ms_v11r1,2022.2.5,Win32,59.52380952,0,4,4,4,1,L_square.bmp,None,L_parallelogram.bmp,None,L_parallelogram.bmp,None,L_parallelogram.bmp,None,L_pentagon.bmp,None,L_parallelogram.bmp,None,0.6,0.6,L_diamond_t.bmp,,,,,,,,,,,,,,,,,,,,,,,,,,,,,,,,,,,,,,,,,,,,,,,,
,example3,1,2025-01-01_00h00.00.000,PGNGS_shapes_600ms_v11r1,2022.2.5,Win32,59.52380952,0,5,5,5,1,L_pentagon.bmp,None,L_pentagon.bmp,None,L_square.bmp,None,L_pentagon.bmp,None,L_triangle.bmp,n,L_HalfOval.bmp,None,0.6,0.6,L_HalfOval_t.bmp,,,,,,,,,,,,,,,,,,,,,,,,,,,,,,,,,,,,,,,,,,,,,,,,
,example3,1,2025-01-01_00h00.00.000,PGNGS_shapes_600ms_v11r1,2022.2.5,Win32,59.52380952,0,6,6,6,1,L_diamond.bmp,n,L_square.bmp,None,L_pentagon.bmp,None,L_square.bmp,None,L_pentagon.bmp,None,L_pentagon.bmp,None,0.6,0.6,L_circle_t.bmp,,,,,,,,,,,,,,,,,,,,,,,,,,,,,,,,,,,,,,,,,,,,,,,,
,example3,1,2025-01-01_00h00.00.000,PGNGS_shapes_600ms_v11r1,2022.2.5,Win32,59.52380952,,,,,,,,,,,,,,,,,,,,,,,,,,,,,,,,,,,,,,,,,,,,,,,,,,,,,,,,,,,,,,,,,,,,
,example3,1,2025-01-01_00h00.00.000,PGNGS_shapes_600ms_v11r1,2022.2.5,Win32,59.52380952,,,,,,,,,,,,,,,,,,,,,,,,,,,,,,,,,,,,,,,,,,,,,,,,,,,,,,,,,,,,,,,,,,,,
,example3,1,2025-01-01_00h00.00.000,PGNGS_shapes_600ms_v11r1,2022.2.5,Win32,59.52380952,,,,,,L_square.bmp,None,L_pentagon.bmp,None,L_pentagon.bmp,None,L_HalfOval.bmp,None,L_pentagon.bmp,None,L_parallelogram.bmp,None,0.6,0.6,L_parallelogram_t.bmp,,1,0,0,0,0,1,,,,,,,,,,,,,,,,,,,,,,,,,,,,,,,,,,,,,,,,,
,example3,1,2025-01-01_00h00.00.000,PGNGS_shapes_600ms_v11r1,2022.2.5,Win32,59.52380952,,,,,,L_parallelogram.bmp,None,L_parallelogram.bmp,None,L_square.bmp,None,L_square.bmp,None,L_parallelogram.bmp,None,L_square.bmp,None,0.6,0.6,L_square_t.bmp,,1,0,1,1,1,1,,,,,,,,,,,,,,,,,,,,,,,,,,,,,,,,,,,,,,,,,
,example3,1,2025-01-01_00h00.00.000,PGNGS_shapes_600ms_v11r1,2022.2.5,Win32,59.52380952,,,,,,L_circle.bmp,n,L_HalfOval.bmp,None,L_HalfOval.bmp,None,L_circle.bmp,n,L_square.bmp,None,L_HalfOval.bmp,None,0.6,0.6,L_pentagon_t.bmp,,0,0,2,2,2,1,,,,,,,,,,,,,,,,,,,,,,,,,,,,,,,,,,,,,,,,,
,example3,1,2025-01-01_00h00.00.000,PGNGS_shapes_600ms_v11r1,2022.2.5,Win32,59.52380952,,,,,,L_HalfOval.bmp,None,L_diamond.bmp,n,L_diamond.bmp,n,L_square.bmp,None,L_parallelogram.bmp,None,L_triangle.bmp,n,0.6,0.6,L_triangle_t.bmp,n,0,0,3,3,3,1,0.0375,,,,,,,,,,,,,,,,,,,,,,,,,,,,,,,,,,,,,,,,
,example3,1,2025-01-01_00h00.00.000,PGNGS_shapes_600ms_v11r1,2022.2.5,Win32,59.52380952,,,,,,L_square.bmp,None,L_parallelogram.bmp,None,L_parallelogram.bmp,None,L_parallelogram.bmp,None,L_pentagon.bmp,None,L_parallelogram.bmp,None,0.6,0.6,L_diamond_t.bmp,,1,0,4,4,4,1,,,,,,,,,,,,,,,,,,,,,,,,,,,,,,,,,,,,,,,,,
,example3,1,2025-01-01_00h00.00.000,PGNGS_shapes_600ms_v11r1,2022.2.5,Win32,59.52380952,,,,,,L_pentagon.bmp,None,L_pentagon.bmp,None,L_square.bmp,None,L_pentagon.bmp,None,L_triangle.bmp,n,L_HalfOval.bmp,None,0.6,0.6,L_HalfOval_t.bmp,,1,0,5,5,5,1,,,,,,,,,,,,,,,,,,,,,,,,,,,,,,,,,,,,,,,,,
,example3,1,2025-01-01_00h00.00.000,PGNGS_shapes_600ms_v11r1,2022.2.5,Win32,59.52380952,,,,,,L_diamond.bmp,n,L_square.bmp,None,L_pentagon.bmp,None,L_square.bmp,None,L_pentagon.bmp,None,L_pentagon.bmp,None,0.6,0.6,L_circle_t.bmp,,0,0,6,6,6,1,,,,,,,,,,,,,,,,,,,,,,,,,,,,,,,,,,,,,,,,,
,example3,1,2025-01-01_00h00.00.000,PGNGS_shapes_600ms_v11r1,2022.2.5,Win32,59.52380952,,,,,,L_HalfOval.bmp,None,L_HalfOval.bmp,None,L_square.bmp,None,L_HalfOval.bmp,None,L_HalfOval.bmp,None,L_circle.bmp,n,0.6,0.6,,n,0,0,7,7,7,1,0.1324,,,,,,,,,,,,,,,,,,,,,,,,,,,,,,,,,,,,,,,,
,example3,1,2025-01-01_00h00.00.000,PGNGS_shapes_600ms_v11r1,2022.2.5,Win32,59.52380952,,,,,,L_parallelogram.bmp,None,L_parallelogram.bmp,None,L_parallelogram.bmp,None,L_parallelogram.bmp,None,L_parallelogram.bmp,None,L_square.bmp,None,0.6,0.6,,,1,0,8,8,8,1,,,,,,,,,,,,,,,,,,,,,,,,,,,,,,,,,,,,,,,,,
,example3,1,2025-01-01_00h00.00.000,PGNGS_shapes_600ms_v11r1,2022.2.5,Win32,59.52380952,,,,,,L_pentagon.bmp,None,L_circle.bmp,n,L_circle.bmp,n,L_square.bmp,None,L_square.bmp,None,L_parallelogram.bmp,None,0.6,0.6,,,1,0,9,9,9,1,,,,,,,,,,,,,,,,,,,,,,,,,,,,,,,,,,,,,,,,,
,example3,1,2025-01-01_00h00.00.000,PGNGS_shapes_600ms_v11r1,2022.2.5,Win32,59.52380952,,,,,,L_HalfOval.bmp,None,L_pentagon.bmp,None,L_pentagon.bmp,None,L_pentagon.bmp,None,L_HalfOval.bmp,None,L_pentagon.bmp,None,0.6,0.6,,,1,0,10,10,10,1,,,,,,,,,,,,,,,,,,,,,,,,,,,,,,,,,,,,,,,,,
,example3,1,2025-01-01_00h00.00.000,PGNGS_shapes_600ms_v11r1,2022.2.5,Win32,59.52380952,,,,,,L_square.bmp,None,L_square.bmp,None,L_square.bmp,None,L_HalfOval.bmp,None,L_parallelogram.bmp,None,L_square.bmp,None,0.6,0.6,,,1,0,11,11,11,1,,,,,,,,,,,,,,,,,,,,,,,,,,,,,,,,,,,,,,,,,
,example3,1,2025-01-01_00h00.00.000,PGNGS_shapes_600ms_v11r1,2022.2.5,Win32,59.52380952,,,,,,L_parallelogram.bmp,None,L_HalfOval.bmp,None,L_HalfOval.bmp,None,L_triangle.bmp,n,L_square.bmp,None,L_diamond.bmp,None,0.6,0.25,,,1,0,12,12,12,1,,,,,,,,,,,,,,,,,,,,,,,,,,,,,,,,,,,,,,,,,
,example3,1,2025-01-01_00h00.00.000,PGNGS_shapes_600ms_v11r1,2022.2.5,Win32,59.52380952,,,,,,L_diamond.bmp,n,L_parallelogram.bmp,None,L_pentagon.bmp,None,L_parallelogram.bmp,None,L_parallelogram.bmp,None,Stop.bmp,None,0.6,500,,n,1,0,13,13,13,1,0.4666,,,,,,,,,,,,,,,,,,,,,,,,,,,,,,,,,,,,,,,,
,example3,1,2025-01-01_00h00.00.000,PGNGS_shapes_600ms_v11r1,2022.2.5,Win32,59.52380952,,,,,,L_pentagon.bmp,None,L_pentagon.bmp,None,L_parallelogram.bmp,None,L_square.bmp,None,L_HalfOval.bmp,None,L_parallelogram.bmp,None,0.6,0.6,,,1,0,14,14,14,1,,,,,,,,,,,,,,,,,,,,,,,,,,,,,,,,,,,,,,,,,
,example3,1,2025-01-01_00h00.00.000,PGNGS_shapes_600ms_v11r1,2022.2.5,Win32,59.52380952,,,,,,L_square.bmp,None,L_square.bmp,None,L_square.bmp,None,L_HalfOval.bmp,None,L_parallelogram.bmp,None,L_HalfOval.bmp,None,0.6,0.6,,,1,0,15,15,15,1,,,,,,,,,,,,,,,,,,,,,,,,,,,,,,,,,,,,,,,,,
,example3,1,2025-01-01_00h00.00.000,PGNGS_shapes_600ms_v11r1,2022.2.5,Win32,59.52380952,,,,,,L_parallelogram.bmp,None,L_circle.bmp,None,L_diamond.bmp,None,L_circle.bmp,n,L_pentagon.bmp,None,L_triangle.bmp,n,0.25,0.6,,,1,0,16,16,16,1,,,,,,,,,,,,,,,,,,,,,,,,,,,,,,,,,,,,,,,,,
,example3,1,2025-01-01_00h00.00.000,PGNGS_shapes_600ms_v11r1,2022.2.5,Win32,59.52380952,,,,,,L_diamond.bmp,n,L_pentagon.bmp,None,Stop.bmp,None,L_HalfOval.bmp,None,L_diamond.bmp,n,L_square.bmp,None,0.45,0.6,,,0,0,17,17,17,1,,,,,,,,,,,,,,,,,,,,,,,,,,,,,,,,,,,,,,,,,
,example3,1,2025-01-01_00h00.00.000,PGNGS_shapes_600ms_v11r1,2022.2.5,Win32,59.52380952,,,,,,L_pentagon.bmp,None,L_parallelogram.bmp,None,L_HalfOval.bmp,None,L_parallelogram.bmp,None,L_square.bmp,None,L_HalfOval.bmp,None,0.6,0.6,,,1,0,18,18,18,1,,,,,,,,,,,,,,,,,,,,,,,,,,,,,,,,,,,,,,,,,
,example3,1,2025-01-01_00h00.00.000,PGNGS_shapes_600ms_v11r1,2022.2.5,Win32,59.52380952,,,,,,L_HalfOval.bmp,None,L_square.bmp,None,L_parallelogram.bmp,None,L_pentagon.bmp,None,L_parallelogram.bmp,None,L_diamond.bmp,n,0.6,0.6,,,1,0,19,19,19,1,,,,,,,,,,,,,,,,,,,,,,,,,,,,,,,,,,,,,,,,,
,example3,1,2025-01-01_00h00.00.000,PGNGS_shapes_600ms_v11r1,2022.2.5,Win32,59.52380952,,,,,,L_square.bmp,None,L_parallelogram.bmp,None,L_square.bmp,None,L_circle.bmp,n,L_diamond.bmp,None,L_HalfOval.bmp,None,0.6,0.6,,,1,0,20,20,20,1,,,,,,,,,,,,,,,,,,,,,,,,,,,,,,,,,,,,,,,,,
,example3,1,2025-01-01_00h00.00.000,PGNGS_shapes_600ms_v11r1,2022.2.5,Win32,59.52380952,,,,,,L_pentagon.bmp,None,L_diamond.bmp,n,L_pentagon.bmp,None,L_parallelogram.bmp,None,L_pentagon.bmp,None,L_parallelogram.bmp,None,0.6,0.6,,,1,0,21,21,21,1,,,,,,,,,,,,,,,,,,,,,,,,,,,,,,,,,,,,,,,,,
,example3,1,2025-01-01_00h00.00.000,PGNGS_shapes_600ms_v11r1,2022.2.5,Win32,59.52380952,,,,,,L_parallelogram.bmp,None,L_square.bmp,None,L_circle.bmp,n,L_pentagon.bmp,None,L_parallelogram.bmp,None,L_pentagon.bmp,None,0.6,0.6,,,1,0,22,22,22,1,,,,,,,,,,,,,,,,,,,,,,,,,,,,,,,,,,,,,,,,,
,example3,1,2025-01-01_00h00.00.000,PGNGS_shapes_600ms_v11r1,2022.2.5,Win32,59.52380952,,,,,,L_HalfOval.bmp,None,L_pentagon.bmp,None,L_parallelogram.bmp,None,L_HalfOval.bmp,None,L_HalfOval.bmp,None,L_triangle.bmp,n,0.6,0.6,,,1,0,23,23,23,1,,,,,,,,,,,,,,,,,,,,,,,,,,,,,,,,,,,,,,,,,
,example3,1,2025-01-01_00h00.00.000,PGNGS_shapes_600ms_v11r1,2022.2.5,Win32,59.52380952,,,,,,L_square.bmp,None,L_square.bmp,None,L_pentagon.bmp,None,L_circle.bmp,n,L_pentagon.bmp,None,L_square.bmp,None,0.6,0.6,,,1,0,24,24,24,1,,,,,,,,,,,,,,,,,,,,,,,,,,,,,,,,,,,,,,,,,
,example3,1,2025-01-01_00h00.00.000,PGNGS_shapes_600ms_v11r1,2022.2.5,Win32,59.52380952,,,,,,L_parallelogram.bmp,None,L_circle.bmp,n,L_square.bmp,None,L_square.bmp,None,L_diamond.bmp,None,L_HalfOval.bmp,None,0.6,0.6,,,1,0,25,25,25,1,,,,,,,,,,,,,,,,,,,,,,,,,,,,,,,,,,,,,,,,,
,example3,1,2025-01-01_00h00.00.000,PGNGS_shapes_600ms_v11r1,2022.2.5,Win32,59.52380952,,,,,,L_HalfOval.bmp,None,L_parallelogram.bmp,None,L_diamond.bmp,n,L_parallelogram.bmp,None,L_HalfOval.bmp,None,L_parallelogram.bmp,None,0.6,0.6,,,1,0,26,26,26,1,,,,,,,,,,,,,,,,,,,,,,,,,,,,,,,,,,,,,,,,,
,example3,1,2025-01-01_00h00.00.000,PGNGS_shapes_600ms_v11r1,2022.2.5,Win32,59.52380952,,,,,,L_square.bmp,None,L_HalfOval.bmp,None,L_HalfOval.bmp,None,L_pentagon.bmp,None,L_parallelogram.bmp,None,L_circle.bmp,None,0.6,0.4,,,1,0,27,27,27,1,,,,,,,,,,,,,,,,,,,,,,,,,,,,,,,,,,,,,,,,,
,example3,1,2025-01-01_00h00.00.000,PGNGS_shapes_600ms_v11r1,2022.2.5,Win32,59.52380952,,,,,,L_parallelogram.bmp,None,L_diamond.bmp,n,L_square.bmp,None,L_triangle.bmp,n,L_circle.bmp,n,Stop.bmp,None,0.6,0.3,,,1,0,28,28,28,1,,,,,,,,,,,,,,,,,,,,,,,,,,,,,,,,,,,,,,,,,
,example3,1,2025-01-01_00h00.00.000,PGNGS_shapes_600ms_v11r1,2022.2.5,Win32,59.52380952,,,,,,L_pentagon.bmp,n,L_pentagon.bmp,None,L_circle.bmp,n,L_parallelogram.bmp,None,L_pentagon.bmp,None,L_parallelogram.bmp,None,0.6,0.6,,,0,0,29,29,29,1,,,,,,,,,,,,,,,,,,,,,,,,,,,,,,,,,,,,,,,,,
,example3,1,2025-01-01_00h00.00.000,PGNGS_shapes_600ms_v11r1,2022.2.5,Win32,59.52380952,,,,,,L_HalfOval.bmp,None,L_parallelogram.bmp,None,L_pentagon.bmp,None,L_square.bmp,None,L_HalfOval.bmp,None,L_HalfOval.bmp,None,0.6,0.6,,,1,0,30,30,30,1,,,,,,,,,,,,,,,,,,,,,,,,,,,,,,,,,,,,,,,,,
,example3,1,2025-01-01_00h00.00.000,PGNGS_shapes_600ms_v11r1,2022.2.5,Win32,59.52380952,,,,,,L_square.bmp,None,L_HalfOval.bmp,None,L_square.bmp,None,L_HalfOval.bmp,None,L_parallelogram.bmp,None,L_pentagon.bmp,None,0.6,0.6,,,1,0,31,31,31,1,,,,,,,,,,,,,,,,,,,,,,,,,,,,,,,,,,,,,,,,,
,example3,1,2025-01-01_00h00.00.000,PGNGS_shapes_600ms_v11r1,2022.2.5,Win32,59.52380952,,,,,,L_parallelogram.bmp,None,L_square.bmp,None,L_parallelogram.bmp,None,L_pentagon.bmp,None,L_square.bmp,None,L_square.bmp,None,0.6,0.6,,,1,0,32,32,32,1,,,,,,,,,,,,,,,,,,,,,,,,,,,,,,,,,,,,,,,,,
,example3,1,2025-01-01_00h00.00.000,PGNGS_shapes_600ms_v11r1,2022.2.5,Win32,59.52380952,,,,,,L_pentagon.bmp,None,L_pentagon.bmp,None,L_HalfOval.bmp,None,L_parallelogram.bmp,None,L_pentagon.bmp,None,L_parallelogram.bmp,None,0.6,0.6,,,1,0,33,33,33,1,,,,,,,,,,,,,,,,,,,,,,,,,,,,,,,,,,,,,,,,,
,example3,1,2025-01-01_00h00.00.000,PGNGS_shapes_600ms_v11r1,2022.2.5,Win32,59.52380952,,,,,,L_diamond.bmp,n,L_HalfOval.bmp,None,L_parallelogram.bmp,None,L_HalfOval.bmp,None,L_parallelogram.bmp,None,L_diamond.bmp,n,0.6,0.6,,,0,0,34,34,34,1,,,,,,,,,,,,,,,,,,,,,,,,,,,,,,,,,,,,,,,,,
,example3,1,2025-01-01_00h00.00.000,PGNGS_shapes_600ms_v11r1,2022.2.5,Win32,59.52380952,,,,,,L_pentagon.bmp,None,L_parallelogram.bmp,None,L_square.bmp,None,L_square.bmp,None,L_square.bmp,None,L_HalfOval.bmp,None,0.6,0.6,,n,0,0,35,35,35,1,0.0718,,,,,,,,,,,,,,,,,,,,,,,,,,,,,,,,,,,,,,,,
,example3,1,2025-01-01_00h00.00.000,PGNGS_shapes_600ms_v11r1,2022.2.5,Win32,59.52380952,,,,,,L_parallelogram.bmp,None,L_square.bmp,None,L_HalfOval.bmp,None,L_triangle.bmp,n,L_HalfOval.bmp,None,L_triangle.bmp,None,0.6,0.3,,,1,0,36,36,36,1,,,,,,,,,,,,,,,,,,,,,,,,,,,,,,,,,,,,,,,,,
,example3,1,2025-01-01_00h00.00.000,PGNGS_shapes_600ms_v11r1,2022.2.5,Win32,59.52380952,,,,,,L_diamond.bmp,n,L_pentagon.bmp,None,L_pentagon.bmp,None,L_parallelogram.bmp,None,L_square.bmp,None,Stop.bmp,None,0.6,0.4,,,0,0,37,37,37,1,,,,,,,,,,,,,,,,,,,,,,,,,,,,,,,,,,,,,,,,,
,example3,1,2025-01-01_00h00.00.000,PGNGS_shapes_600ms_v11r1,2022.2.5,Win32,59.52380952,,,,,,L_pentagon.bmp,None,L_diamond.bmp,None,L_square.bmp,None,L_square.bmp,None,L_triangle.bmp,n,L_parallelogram.bmp,None,0.6,0.6,,n,0,0,38,38,38,1,0.2494,,,,,,,,,,,,,,,,,,,,,,,,,,,,,,,,,,,,,,,,
,example3,1,2025-01-01_00h00.00.000,PGNGS_shapes_600ms_v11r1,2022.2.5,Win32,59.52380952,,,,,,L_HalfOval.bmp,None,L_pentagon.bmp,None,L_diamond.bmp,None,L_pentagon.bmp,None,L_pentagon.bmp,None,L_square.bmp,None,0.4,0.6,,,1,0,39,39,39,1,,,,,,,,,,,,,,,,,,,,,,,,,,,,,,,,,,,,,,,,,
,example3,1,2025-01-01_00h00.00.000,PGNGS_shapes_600ms_v11r1,2022.2.5,Win32,59.52380952,,,,,,L_parallelogram.bmp,None,L_HalfOval.bmp,None,Stop.bmp,None,L_parallelogram.bmp,None,L_HalfOval.bmp,None,L_HalfOval.bmp,None,0.3,0.6,,,1,0,40,40,40,1,,,,,,,,,,,,,,,,,,,,,,,,,,,,,,,,,,,,,,,,,
,example3,1,2025-01-01_00h00.00.000,PGNGS_shapes_600ms_v11r1,2022.2.5,Win32,59.52380952,,,,,,L_circle.bmp,n,L_parallelogram.bmp,None,L_square.bmp,None,L_HalfOval.bmp,None,L_square.bmp,None,L_parallelogram.bmp,None,0.6,0.6,,n,1,0,41,41,41,1,0.5151,,,,,,,,,,,,,,,,,,,,,,,,,,,,,,,,,,,,,,,,
,example3,1,2025-01-01_00h00.00.000,PGNGS_shapes_600ms_v11r1,2022.2.5,Win32,59.52380952,,,,,,L_pentagon.bmp,None,L_pentagon.bmp,None,L_HalfOval.bmp,None,L_square.bmp,None,L_pentagon.bmp,None,L_pentagon.bmp,None,0.6,0.6,,,1,0,42,42,42,1,,,,,,,,,,,,,,,,,,,,,,,,,,,,,,,,,,,,,,,,,
,example3,1,2025-01-01_00h00.00.000,PGNGS_shapes_600ms_v11r1,2022.2.5,Win32,59.52380952,,,,,,L_square.bmp,None,L_square.bmp,None,L_pentagon.bmp,None,L_pentagon.bmp,None,L_HalfOval.bmp,None,L_circle.bmp,n,0.6,0.6,,,1,0,43,43,43,1,,,,,,,,,,,,,,,,,,,,,,,,,,,,,,,,,,,,,,,,,
,example3,1,2025-01-01_00h00.00.000,PGNGS_shapes_600ms_v11r1,2022.2.5,Win32,59.52380952,,,,,,L_HalfOval.bmp,None,L_HalfOval.bmp,None,L_parallelogram.bmp,None,L_square.bmp,None,L_parallelogram.bmp,None,L_square.bmp,None,0.6,0.6,,,1,0,44,44,44,1,,,,,,,,,,,,,,,,,,,,,,,,,,,,,,,,,,,,,,,,,
,example3,1,2025-01-01_00h00.00.000,PGNGS_shapes_600ms_v11r1,2022.2.5,Win32,59.52380952,,,,,,L_circle.bmp,n,L_parallelogram.bmp,None,L_square.bmp,None,L_diamond.bmp,n,L_HalfOval.bmp,None,L_HalfOval.bmp,None,0.6,0.6,,,0,0,45,45,45,1,,,,,,,,,,,,,,,,,,,,,,,,,,,,,,,,,,,,,,,,,
,example3,1,2025-01-01_00h00.00.000,PGNGS_shapes_600ms_v11r1,2022.2.5,Win32,59.52380952,,,,,,L_square.bmp,None,L_pentagon.bmp,None,L_pentagon.bmp,None,L_square.bmp,None,L_pentagon.bmp,None,L_parallelogram.bmp,None,0.6,0.6,,,1,0,46,46,46,1,,,,,,,,,,,,,,,,,,,,,,,,,,,,,,,,,,,,,,,,,
,example3,1,2025-01-01_00h00.00.000,PGNGS_shapes_600ms_v11r1,2022.2.5,Win32,59.52380952,,,,,,L_HalfOval.bmp,None,L_HalfOval.bmp,None,L_parallelogram.bmp,None,L_HalfOval.bmp,None,L_square.bmp,None,L_pentagon.bmp,None,0.6,0.6,,,1,0,47,47,47,1,,,,,,,,,,,,,,,,,,,,,,,,,,,,,,,,,,,,,,,,,
,example3,1,2025-01-01_00h00.00.000,PGNGS_shapes_600ms_v11r1,2022.2.5,Win32,59.52380952,,,,,,L_parallelogram.bmp,None,L_parallelogram.bmp,None,L_diamond.bmp,n,L_pentagon.bmp,None,L_HalfOval.bmp,None,L_parallelogram.bmp,None,0.6,0.6,,,1,0,48,48,48,1,,,,,,,,,,,,,,,,,,,,,,,,,,,,,,,,,,,,,,,,,
,example3,1,2025-01-01_00h00.00.000,PGNGS_shapes_600ms_v11r1,2022.2.5,Win32,59.52380952,,,,,,L_square.bmp,None,L_pentagon.bmp,None,L_HalfOval.bmp,None,L_square.bmp,None,L_square.bmp,None,L_square.bmp,None,0.6,0.6,,,1,0,49,49,49,1,,,,,,,,,,,,,,,,,,,,,,,,,,,,,,,,,,,,,,,,,
,example3,1,2025-01-01_00h00.00.000,PGNGS_shapes_600ms_v11r1,2022.2.5,Win32,59.52380952,,,,,,L_pentagon.bmp,None,L_square.bmp,None,L_square.bmp,None,L_HalfOval.bmp,None,L_parallelogram.bmp,None,L_triangle.bmp,n,0.6,0.6,,,1,0,50,50,50,1,,,,,,,,,,,,,,,,,,,,,,,,,,,,,,,,,,,,,,,,,
,example3,1,2025-01-01_00h00.00.000,PGNGS_shapes_600ms_v11r1,2022.2.5,Win32,59.52380952,,,,,,L_HalfOval.bmp,None,L_parallelogram.bmp,None,L_parallelogram.bmp,None,L_triangle.bmp,n,L_circle.bmp,n,L_square.bmp,None,0.6,0.6,,,1,0,51,51,51,1,,,,,,,,,,,,,,,,,,,,,,,,,,,,,,,,,,,,,,,,,
,example3,1,2025-01-01_00h00.00.000,PGNGS_shapes_600ms_v11r1,2022.2.5,Win32,59.52380952,,,,,,L_parallelogram.bmp,None,L_HalfOval.bmp,None,L_square.bmp,None,L_pentagon.bmp,None,L_pentagon.bmp,None,L_parallelogram.bmp,None,0.6,0.6,,,1,0,52,52,52,1,,,,,,,,,,,,,,,,,,,,,,,,,,,,,,,,,,,,,,,,,
,example3,1,2025-01-01_00h00.00.000,PGNGS_shapes_600ms_v11r1,2022.2.5,Win32,59.52380952,,,,,,L_pentagon.bmp,None,L_square.bmp,None,L_pentagon.bmp,None,L_square.bmp,None,L_square.bmp,None,L_HalfOval.bmp,None,0.6,0.6,,,1,0,53,53,53,1,,,,,,,,,,,,,,,,,,,,,,,,,,,,,,,,,,,,,,,,,
,example3,1,2025-01-01_00h00.00.000,PGNGS_shapes_600ms_v11r1,2022.2.5,Win32,59.52380952,,,,,,L_HalfOval.bmp,None,L_circle.bmp,n,L_HalfOval.bmp,None,L_parallelogram.bmp,None,L_parallelogram.bmp,None,L_square.bmp,None,0.6,0.6,,,1,0,54,54,54,1,,,,,,,,,,,,,,,,,,,,,,,,,,,,,,,,,,,,,,,,,
,example3,1,2025-01-01_00h00.00.000,PGNGS_shapes_600ms_v11r1,2022.2.5,Win32,59.52380952,,,,,,L_diamond.bmp,n,L_parallelogram.bmp,None,L_parallelogram.bmp,None,L_triangle.bmp,n,L_triangle.bmp,n,L_pentagon.bmp,None,0.6,0.6,,,0,0,55,55,55,1,,,,,,,,,,,,,,,,,,,,,,,,,,,,,,,,,,,,,,,,,
,example3,1,2025-01-01_00h00.00.000,PGNGS_shapes_600ms_v11r1,2022.2.5,Win32,59.52380952,,,,,,L_parallelogram.bmp,None,L_square.bmp,None,L_square.bmp,None,L_HalfOval.bmp,None,L_pentagon.bmp,None,L_HalfOval.bmp,None,0.6,0.6,,n,0,0,56,56,56,1,0.3314,,,,,,,,,,,,,,,,,,,,,,,,,,,,,,,,,,,,,,,,
,example3,1,2025-01-01_00h00.00.000,PGNGS_shapes_600ms_v11r1,2022.2.5,Win32,59.52380952,,,,,,L_HalfOval.bmp,None,L_HalfOval.bmp,None,L_pentagon.bmp,None,L_parallelogram.bmp,None,L_HalfOval.bmp,None,L_parallelogram.bmp,None,0.6,0.6,,,1,0,57,57,57,1,,,,,,,,,,,,,,,,,,,,,,,,,,,,,,,,,,,,,,,,,
,example3,1,2025-01-01_00h00.00.000,PGNGS_shapes_600ms_v11r1,2022.2.5,Win32,59.52380952,,,,,,L_circle.bmp,n,L_diamond.bmp,n,L_HalfOval.bmp,None,L_pentagon.bmp,None,L_diamond.bmp,n,L_square.bmp,None,0.6,0.6,,n,1,0,58,58,58,1,0.5162,,,,,,,,,,,,,,,,,,,,,,,,,,,,,,,,,,,,,,,,
,example3,1,2025-01-01_00h00.00.000,PGNGS_shapes_600ms_v11r1,2022.2.5,Win32,59.52380952,,,,,,L_parallelogram.bmp,None,L_square.bmp,None,L_parallelogram.bmp,None,L_HalfOval.bmp,None,L_pentagon.bmp,None,L_pentagon.bmp,None,0.6,0.6,,,1,0,59,59,59,1,,,,,,,,,,,,,,,,,,,,,,,,,,,,,,,,,,,,,,,,,
,example3,1,2025-01-01_00h00.00.000,PGNGS_shapes_600ms_v11r1,2022.2.5,Win32,59.52380952,,,,,,L_square.bmp,None,L_parallelogram.bmp,None,L_pentagon.bmp,None,L_diamond.bmp,n,L_square.bmp,None,L_HalfOval.bmp,None,0.6,0.6,,,1,0,60,60,60,1,,,,,,,,,,,,,,,,,,,,,,,,,,,,,,,,,,,,,,,,,
,example3,1,2025-01-01_00h00.00.000,PGNGS_shapes_600ms_v11r1,2022.2.5,Win32,59.52380952,,,,,,L_HalfOval.bmp,None,L_HalfOval.bmp,None,L_circle.bmp,None,L_pentagon.bmp,None,L_pentagon.bmp,None,L_parallelogram.bmp,None,0.3,0.6,,,1,0,61,61,61,1,,,,,,,,,,,,,,,,,,,,,,,,,,,,,,,,,,,,,,,,,
,example3,1,2025-01-01_00h00.00.000,PGNGS_shapes_600ms_v11r1,2022.2.5,Win32,59.52380952,,,,,,L_square.bmp,None,L_pentagon.bmp,None,Stop.bmp,None,L_parallelogram.bmp,None,L_parallelogram.bmp,None,L_pentagon.bmp,None,0.4,0.6,,,1,0,62,62,62,1,,,,,,,,,,,,,,,,,,,,,,,,,,,,,,,,,,,,,,,,,
,example3,1,2025-01-01_00h00.00.000,PGNGS_shapes_600ms_v11r1,2022.2.5,Win32,59.52380952,,,,,,L_pentagon.bmp,None,L_parallelogram.bmp,None,L_square.bmp,None,L_HalfOval.bmp,None,L_HalfOval.bmp,None,L_diamond.bmp,None,0.6,0.4,,,1,0,63,63,63,1,,,,,,,,,,,,,,,,,,,,,,,,,,,,,,,,,,,,,,,,,
,example3,1,2025-01-01_00h00.00.000,PGNGS_shapes_600ms_v11r1,2022.2.5,Win32,59.52380952,,,,,,L_circle.bmp,n,L_HalfOval.bmp,None,L_HalfOval.bmp,None,L_square.bmp,None,L_square.bmp,None,Stop.bmp,None,0.6,0.3,,,0,0,64,64,64,1,,,,,,,,,,,,,,,,,,,,,,,,,,,,,,,,,,,,,,,,,
,example3,1,2025-01-01_00h00.00.000,PGNGS_shapes_600ms_v11r1,2022.2.5,Win32,59.52380952,,,,,,L_parallelogram.bmp,None,L_square.bmp,None,L_pentagon.bmp,None,L_pentagon.bmp,None,L_pentagon.bmp,None,L_HalfOval.bmp,None,0.6,0.6,,,1,0,65,65,65,1,,,,,,,,,,,,,,,,,,,,,,,,,,,,,,,,,,,,,,,,,
,example3,1,2025-01-01_00h00.00.000,PGNGS_shapes_600ms_v11r1,2022.2.5,Win32,59.52380952,,,,,,L_square.bmp,None,L_pentagon.bmp,None,L_HalfOval.bmp,None,L_diamond.bmp,n,L_square.bmp,None,L_parallelogram.bmp,None,0.6,0.6,,,1,0,66,66,66,1,,,,,,,,,,,,,,,,,,,,,,,,,,,,,,,,,,,,,,,,,
,example3,1,2025-01-01_00h00.00.000,PGNGS_shapes_600ms_v11r1,2022.2.5,Win32,59.52380952,,,,,,L_circle.bmp,n,L_parallelogram.bmp,None,L_parallelogram.bmp,None,L_HalfOval.bmp,None,L_HalfOval.bmp,None,L_square.bmp,None,0.6,0.6,,,0,0,67,67,67,1,,,,,,,,,,,,,,,,,,,,,,,,,,,,,,,,,,,,,,,,,
,example3,1,2025-01-01_00h00.00.000,PGNGS_shapes_600ms_v11r1,2022.2.5,Win32,59.52380952,,,,,,L_square.bmp,None,L_square.bmp,None,L_square.bmp,None,L_square.bmp,None,L_pentagon.bmp,None,L_circle.bmp,n,0.6,0.6,,,1,0,68,68,68,1,,,,,,,,,,,,,,,,,,,,,,,,,,,,,,,,,,,,,,,,,
,example3,1,2025-01-01_00h00.00.000,PGNGS_shapes_600ms_v11r1,2022.2.5,Win32,59.52380952,,,,,,L_parallelogram.bmp,None,L_pentagon.bmp,None,L_pentagon.bmp,None,L_pentagon.bmp,None,L_square.bmp,None,L_square.bmp,None,0.6,0.6,,,1,0,69,69,69,1,,,,,,,,,,,,,,,,,,,,,,,,,,,,,,,,,,,,,,,,,
,example3,1,2025-01-01_00h00.00.000,PGNGS_shapes_600ms_v11r1,2022.2.5,Win32,59.52380952,,,,,,L_pentagon.bmp,None,L_diamond.bmp,None,L_parallelogram.bmp,None,L_diamond.bmp,n,L_diamond.bmp,None,L_HalfOval.bmp,None,0.6,0.6,,,1,0,70,70,70,1,,,,,,,,,,,,,,,,,,,,,,,,,,,,,,,,,,,,,,,,,
,example3,1,2025-01-01_00h00.00.000,PGNGS_shapes_600ms_v11r1,2022.2.5,Win32,59.52380952,,,,,,L_HalfOval.bmp,None,L_pentagon.bmp,None,L_square.bmp,None,L_pentagon.bmp,None,L_pentagon.bmp,None,L_pentagon.bmp,None,0.6,0.6,,n,0,0,71,71,71,1,0.4372,,,,,,,,,,,,,,,,,,,,,,,,,,,,,,,,,,,,,,,,
,example3,1,2025-01-01_00h00.00.000,PGNGS_shapes_600ms_v11r1,2022.2.5,Win32,59.52380952,,,,,,L_diamond.bmp,n,L_pentagon.bmp,None,L_diamond.bmp,n,L_HalfOval.bmp,None,L_parallelogram.bmp,None,L_square.bmp,None,0.6,0.6,,,0,0,72,72,72,1,,,,,,,,,,,,,,,,,,,,,,,,,,,,,,,,,,,,,,,,,
,example3,1,2025-01-01_00h00.00.000,PGNGS_shapes_600ms_v11r1,2022.2.5,Win32,59.52380952,,,,,,L_HalfOval.bmp,None,L_HalfOval.bmp,None,L_square.bmp,None,L_diamond.bmp,n,L_HalfOval.bmp,None,L_HalfOval.bmp,None,0.6,0.6,,,1,0,73,73,73,1,,,,,,,,,,,,,,,,,,,,,,,,,,,,,,,,,,,,,,,,,
,example3,1,2025-01-01_00h00.00.000,PGNGS_shapes_600ms_v11r1,2022.2.5,Win32,59.52380952,,,,,,L_pentagon.bmp,None,L_square.bmp,None,L_HalfOval.bmp,None,L_square.bmp,None,L_square.bmp,None,L_parallelogram.bmp,None,0.6,0.6,,,1,0,74,74,74,1,,,,,,,,,,,,,,,,,,,,,,,,,,,,,,,,,,,,,,,,,
,example3,1,2025-01-01_00h00.00.000,PGNGS_shapes_600ms_v11r1,2022.2.5,Win32,59.52380952,,,,,,L_square.bmp,None,L_parallelogram.bmp,None,L_circle.bmp,n,L_pentagon.bmp,None,L_HalfOval.bmp,None,L_square.bmp,None,0.6,0.6,,,1,0,75,75,75,1,,,,,,,,,,,,,,,,,,,,,,,,,,,,,,,,,,,,,,,,,
,example3,1,2025-01-01_00h00.00.000,PGNGS_shapes_600ms_v11r1,2022.2.5,Win32,59.52380952,,,,,,L_parallelogram.bmp,None,L_pentagon.bmp,None,L_pentagon.bmp,None,L_parallelogram.bmp,None,L_pentagon.bmp,None,L_pentagon.bmp,None,0.6,0.6,,,1,0,76,76,76,1,,,,,,,,,,,,,,,,,,,,,,,,,,,,,,,,,,,,,,,,,
,example3,1,2025-01-01_00h00.00.000,PGNGS_shapes_600ms_v11r1,2022.2.5,Win32,59.52380952,,,,,,L_square.bmp,None,L_HalfOval.bmp,None,L_square.bmp,None,L_HalfOval.bmp,None,L_circle.bmp,n,L_square.bmp,None,0.6,0.6,,,1,0,77,77,77,1,,,,,,,,,,,,,,,,,,,,,,,,,,,,,,,,,,,,,,,,,
,example3,1,2025-01-01_00h00.00.000,PGNGS_shapes_600ms_v11r1,2022.2.5,Win32,59.52380952,,,,,,L_circle.bmp,n,L_parallelogram.bmp,None,L_parallelogram.bmp,None,L_circle.bmp,n,L_pentagon.bmp,None,L_triangle.bmp,n,0.6,0.6,,n,1,0,78,78,78,1,0.5329,,,,,,,,,,,,,,,,,,,,,,,,,,,,,,,,,,,,,,,,
,example3,1,2025-01-01_00h00.00.000,PGNGS_shapes_600ms_v11r1,2022.2.5,Win32,59.52380952,,,,,,L_pentagon.bmp,None,L_square.bmp,None,L_diamond.bmp,n,L_square.bmp,None,L_square.bmp,None,L_parallelogram.bmp,None,0.6,0.6,,,1,0,79,79,79,1,,,,,,,,,,,,,,,,,,,,,,,,,,,,,,,,,,,,,,,,,
,example3,1,2025-01-01_00h00.00.000,PGNGS_shapes_600ms_v11r1,2022.2.5,Win32,59.52380952,,,,,,L_parallelogram.bmp,None,L_pentagon.bmp,None,L_HalfOval.bmp,None,L_pentagon.bmp,None,L_parallelogram.bmp,None,L_square.bmp,None,0.6,0.6,,,1,0,80,80,80,1,,,,,,,,,,,,,,,,,,,,,,,,,,,,,,,,,,,,,,,,,
,example3,1,2025-01-01_00h00.00.000,PGNGS_shapes_600ms_v11r1,2022.2.5,Win32,59.52380952,,,,,,L_HalfOval.bmp,None,L_circle.bmp,n,L_pentagon.bmp,None,L_HalfOval.bmp,None,L_circle.bmp,None,L_circle.bmp,n,0.6,0.6,,,1,0,81,81,81,1,,,,,,,,,,,,,,,,,,,,,,,,,,,,,,,,,,,,,,,,,
,example3,1,2025-01-01_00h00.00.000,PGNGS_shapes_600ms_v11r1,2022.2.5,Win32,59.52380952,,,,,,L_square.bmp,None,L_HalfOval.bmp,None,L_square.bmp,None,L_parallelogram.bmp,None,L_square.bmp,None,L_pentagon.bmp,None,0.6,0.6,,,1,0,82,82,82,1,,,,,,,,,,,,,,,,,,,,,,,,,,,,,,,,,,,,,,,,,
,example3,1,2025-01-01_00h00.00.000,PGNGS_shapes_600ms_v11r1,2022.2.5,Win32,59.52380952,,,,,,L_parallelogram.bmp,None,L_square.bmp,None,L_HalfOval.bmp,None,L_HalfOval.bmp,None,L_parallelogram.bmp,None,L_HalfOval.bmp,None,0.6,0.6,,,1,0,83,83,83,1,,,,,,,,,,,,,,,,,,,,,,,,,,,,,,,,,,,,,,,,,
,example3,1,2025-01-01_00h00.00.000,PGNGS_shapes_600ms_v11r1,2022.2.5,Win32,59.52380952,,,,,,L_circle.bmp,n,L_diamond.bmp,n,L_circle.bmp,None,L_square.bmp,None,L_pentagon.bmp,None,L_square.bmp,None,0.4,0.6,,,0,0,84,84,84,1,,,,,,,,,,,,,,,,,,,,,,,,,,,,,,,,,,,,,,,,,
,example3,1,2025-01-01_00h00.00.000,PGNGS_shapes_600ms_v11r1,2022.2.5,Win32,59.52380952,,,,,,L_pentagon.bmp,None,L_square.bmp,None,Stop.bmp,None,L_HalfOval.bmp,None,L_triangle.bmp,n,L_HalfOval.bmp,None,0.3,0.6,,n,0,0,85,85,85,1,0.1691,,,,,,,,,,,,,,,,,,,,,,,,,,,,,,,,,,,,,,,,
,example3,1,2025-01-01_00h00.00.000,PGNGS_shapes_600ms_v11r1,2022.2.5,Win32,59.52380952,,,,,,L_parallelogram.bmp,None,L_HalfOval.bmp,None,L_pentagon.bmp,None,L_parallelogram.bmp,None,L_pentagon.bmp,None,L_parallelogram.bmp,None,0.6,0.6,,,1,0,86,86,86,1,,,,,,,,,,,,,,,,,,,,,,,,,,,,,,,,,,,,,,,,,
,example3,1,2025-01-01_00h00.00.000,PGNGS_shapes_600ms_v11r1,2022.2.5,Win32,59.52380952,,,,,,L_diamond.bmp,n,L_pentagon.bmp,None,L_parallelogram.bmp,None,L_pentagon.bmp,None,L_HalfOval.bmp,None,L_triangle.bmp,None,0.6,0.3,,n,1,0,87,87,87,1,0.5044,,,,,,,,,,,,,,,,,,,,,,,,,,,,,,,,,,,,,,,,
,example3,1,2025-01-01_00h00.00.000,PGNGS_shapes_600ms_v11r1,2022.2.5,Win32,59.52380952,,,,,,L_parallelogram.bmp,None,L_circle.bmp,n,L_HalfOval.bmp,None,L_square.bmp,None,L_square.bmp,None,Stop.bmp,None,0.6,0.4,,,1,0,88,88,88,1,,,,,,,,,,,,,,,,,,,,,,,,,,,,,,,,,,,,,,,,,
,example3,1,2025-01-01_00h00.00.000,PGNGS_shapes_600ms_v11r1,2022.2.5,Win32,59.52380952,,,,,,L_HalfOval.bmp,None,L_square.bmp,None,L_diamond.bmp,n,L_diamond.bmp,n,L_circle.bmp,n,L_pentagon.bmp,None,0.6,0.6,,,1,0,89,89,89,1,,,,,,,,,,,,,,,,,,,,,,,,,,,,,,,,,,,,,,,,,
,example3,1,2025-01-01_00h00.00.000,PGNGS_shapes_600ms_v11r1,2022.2.5,Win32,59.52380952,,,,,,L_pentagon.bmp,None,L_pentagon.bmp,None,L_square.bmp,None,L_HalfOval.bmp,None,L_parallelogram.bmp,None,L_HalfOval.bmp,None,0.6,0.6,,,1,0,90,90,90,1,,,,,,,,,,,,,,,,,,,,,,,,,,,,,,,,,,,,,,,,,
,example3,1,2025-01-01_00h00.00.000,PGNGS_shapes_600ms_v11r1,2022.2.5,Win32,59.52380952,,,,,,L_parallelogram.bmp,None,L_HalfOval.bmp,None,L_pentagon.bmp,None,L_square.bmp,None,L_HalfOval.bmp,None,L_diamond.bmp,n,0.6,0.6,,,1,0,91,91,91,1,,,,,,,,,,,,,,,,,,,,,,,,,,,,,,,,,,,,,,,,,
,example3,1,2025-01-01_00h00.00.000,PGNGS_shapes_600ms_v11r1,2022.2.5,Win32,59.52380952,,,,,,L_pentagon.bmp,None,L_circle.bmp,None,L_circle.bmp,n,L_pentagon.bmp,None,L_square.bmp,None,L_pentagon.bmp,None,0.6,0.6,,,1,0,92,92,92,1,,,,,,,,,,,,,,,,,,,,,,,,,,,,,,,,,,,,,,,,,
,example3,1,2025-01-01_00h00.00.000,PGNGS_shapes_600ms_v11r1,2022.2.5,Win32,59.52380952,,,,,,L_circle.bmp,n,L_pentagon.bmp,None,L_parallelogram.bmp,None,L_triangle.bmp,n,L_pentagon.bmp,None,L_parallelogram.bmp,None,0.6,0.6,,,0,0,93,93,93,1,,,,,,,,,,,,,,,,,,,,,,,,,,,,,,,,,,,,,,,,,
,example3,1,2025-01-01_00h00.00.000,PGNGS_shapes_600ms_v11r1,2022.2.5,Win32,59.52380952,,,,,,L_pentagon.bmp,None,L_square.bmp,None,L_square.bmp,None,L_square.bmp,None,L_circle.bmp,None,L_square.bmp,None,0.6,0.6,,n,0,0,94,94,94,1,0.0807,,,,,,,,,,,,,,,,,,,,,,,,,,,,,,,,,,,,,,,,
,example3,1,2025-01-01_00h00.00.000,PGNGS_shapes_600ms_v11r1,2022.2.5,Win32,59.52380952,,,,,,L_square.bmp,None,L_HalfOval.bmp,None,L_HalfOval.bmp,None,L_parallelogram.bmp,None,L_parallelogram.bmp,None,L_pentagon.bmp,None,0.6,0.6,,,1,0,95,95,95,1,,,,,,,,,,,,,,,,,,,,,,,,,,,,,,,,,,,,,,,,,
,example3,1,2025-01-01_00h00.00.000,PGNGS_shapes_600ms_v11r1,2022.2.5,Win32,59.52380952,,,,,,L_parallelogram.bmp,None,L_pentagon.bmp,None,L_diamond.bmp,n,L_HalfOval.bmp,None,L_HalfOval.bmp,None,L_parallelogram.bmp,None,0.6,0.6,,,1,0,96,96,96,1,,,,,,,,,,,,,,,,,,,,,,,,,,,,,,,,,,,,,,,,,
,example3,1,2025-01-01_00h00.00.000,PGNGS_shapes_600ms_v11r1,2022.2.5,Win32,59.52380952,,,,,,L_HalfOval.bmp,None,L_diamond.bmp,n,L_pentagon.bmp,None,L_pentagon.bmp,None,L_triangle.bmp,n,L_triangle.bmp,n,0.6,0.6,,,1,0,97,97,97,1,,,,,,,,,,,,,,,,,,,,,,,,,,,,,,,,,,,,,,,,,
,example3,1,2025-01-01_00h00.00.000,PGNGS_shapes_600ms_v11r1,2022.2.5,Win32,59.52380952,,,,,,L_pentagon.bmp,None,L_pentagon.bmp,None,L_parallelogram.bmp,None,L_parallelogram.bmp,None,L_square.bmp,None,L_pentagon.bmp,None,0.6,0.6,,n,0,0,98,98,98,1,0.5015,,,,,,,,,,,,,,,,,,,,,,,,,,,,,,,,,,,,,,,,
,example3,1,2025-01-01_00h00.00.000,PGNGS_shapes_600ms_v11r1,2022.2.5,Win32,59.52380952,,,,,,L_square.bmp,None,L_parallelogram.bmp,None,L_circle.bmp,n,L_square.bmp,None,L_parallelogram.bmp,None,L_HalfOval.bmp,None,0.6,0.6,,,1,0,99,99,99,1,,,,,,,,,,,,,,,,,,,,,,,,,,,,,,,,,,,,,,,,,
,example3,1,2025-01-01_00h00.00.000,PGNGS_shapes_600ms_v11r1,2022.2.5,Win32,59.52380952,,,,,,L_HalfOval.bmp,None,L_circle.bmp,n,L_HalfOval.bmp,None,L_pentagon.bmp,None,L_diamond.bmp,n,L_parallelogram.bmp,None,0.6,0.6,,,1,0,100,100,100,1,,,,,,,,,,,,,,,,,,,,,,,,,,,,,,,,,,,,,,,,,
,example3,1,2025-01-01_00h00.00.000,PGNGS_shapes_600ms_v11r1,2022.2.5,Win32,59.52380952,,,,,,L_parallelogram.bmp,None,L_pentagon.bmp,None,L_square.bmp,None,L_parallelogram.bmp,None,L_HalfOval.bmp,None,L_HalfOval.bmp,None,0.6,0.6,,,1,0,101,101,101,1,,,,,,,,,,,,,,,,,,,,,,,,,,,,,,,,,,,,,,,,,
,example3,1,2025-01-01_00h00.00.000,PGNGS_shapes_600ms_v11r1,2022.2.5,Win32,59.52380952,,,,,,L_square.bmp,None,L_HalfOval.bmp,None,L_pentagon.bmp,None,L_square.bmp,None,L_pentagon.bmp,None,L_square.bmp,None,0.6,0.6,,,1,0,102,102,102,1,,,,,,,,,,,,,,,,,,,,,,,,,,,,,,,,,,,,,,,,,
,example3,1,2025-01-01_00h00.00.000,PGNGS_shapes_600ms_v11r1,2022.2.5,Win32,59.52380952,,,,,,L_pentagon.bmp,None,L_square.bmp,None,L_diamond.bmp,n,L_HalfOval.bmp,None,L_parallelogram.bmp,None,L_HalfOval.bmp,None,0.6,0.6,,,1,0,103,103,103,1,,,,,,,,,,,,,,,,,,,,,,,,,,,,,,,,,,,,,,,,,
,example3,1,2025-01-01_00h00.00.000,PGNGS_shapes_600ms_v11r1,2022.2.5,Win32,59.52380952,,,,,,L_HalfOval.bmp,None,L_diamond.bmp,n,L_parallelogram.bmp,None,L_pentagon.bmp,None,L_triangle.bmp,n,L_parallelogram.bmp,None,0.6,0.6,,,1,0,104,104,104,1,,,,,,,,,,,,,,,,,,,,,,,,,,,,,,,,,,,,,,,,,
,example3,1,2025-01-01_00h00.00.000,PGNGS_shapes_600ms_v11r1,2022.2.5,Win32,59.52380952,,,,,,L_diamond.bmp,n,L_parallelogram.bmp,None,L_HalfOval.bmp,None,L_parallelogram.bmp,None,L_square.bmp,None,L_pentagon.bmp,None,0.6,0.6,,,0,0,105,105,105,1,,,,,,,,,,,,,,,,,,,,,,,,,,,,,,,,,,,,,,,,,
,example3,1,2025-01-01_00h00.00.000,PGNGS_shapes_600ms_v11r1,2022.2.5,Win32,59.52380952,,,,,,L_pentagon.bmp,None,L_pentagon.bmp,None,L_parallelogram.bmp,None,L_square.bmp,None,L_HalfOval.bmp,None,L_HalfOval.bmp,None,0.6,0.6,,,1,0,106,106,106,1,,,,,,,,,,,,,,,,,,,,,,,,,,,,,,,,,,,,,,,,,
,example3,1,2025-01-01_00h00.00.000,PGNGS_shapes_600ms_v11r1,2022.2.5,Win32,59.52380952,,,,,,L_parallelogram.bmp,None,L_HalfOval.bmp,None,L_pentagon.bmp,None,L_pentagon.bmp,None,L_parallelogram.bmp,None,L_parallelogram.bmp,None,0.6,0.6,,,1,0,107,107,107,1,,,,,,,,,,,,,,,,,,,,,,,,,,,,,,,,,,,,,,,,,
,example3,1,2025-01-01_00h00.00.000,PGNGS_shapes_600ms_v11r1,2022.2.5,Win32,59.52380952,,,,,,L_square.bmp,None,L_circle.bmp,n,L_circle.bmp,None,L_circle.bmp,n,L_triangle.bmp,None,L_HalfOval.bmp,None,0.3,0.6,,,1,0,108,108,108,1,,,,,,,,,,,,,,,,,,,,,,,,,,,,,,,,,,,,,,,,,
,example3,1,2025-01-01_00h00.00.000,PGNGS_shapes_600ms_v11r1,2022.2.5,Win32,59.52380952,,,,,,L_HalfOval.bmp,None,L_pentagon.bmp,None,Stop.bmp,None,L_pentagon.bmp,None,L_parallelogram.bmp,None,L_diamond.bmp,n,0.4,0.6,,,1,0,109,109,109,1,,,,,,,,,,,,,,,,,,,,,,,,,,,,,,,,,,,,,,,,,
,example3,1,2025-01-01_00h00.00.000,PGNGS_shapes_600ms_v11r1,2022.2.5,Win32,59.52380952,,,,,,L_parallelogram.bmp,None,L_parallelogram.bmp,None,L_pentagon.bmp,None,L_HalfOval.bmp,None,L_HalfOval.bmp,None,L_parallelogram.bmp,None,0.6,0.6,,,1,0,110,110,110,1,,,,,,,,,,,,,,,,,,,,,,,,,,,,,,,,,,,,,,,,,
,example3,1,2025-01-01_00h00.00.000,PGNGS_shapes_600ms_v11r1,2022.2.5,Win32,59.52380952,,,,,,L_pentagon.bmp,None,L_HalfOval.bmp,None,L_HalfOval.bmp,None,L_parallelogram.bmp,None,L_parallelogram.bmp,None,L_pentagon.bmp,None,0.6,0.6,,,1,0,111,111,111,1,,,,,,,,,,,,,,,,,,,,,,,,,,,,,,,,,,,,,,,,,
,example3,1,2025-01-01_00h00.00.000,PGNGS_shapes_600ms_v11r1,2022.2.5,Win32,59.52380952,,,,,,L_square.bmp,None,L_diamond.bmp,n,L_parallelogram.bmp,None,L_square.bmp,None,L_square.bmp,None,L_circle.bmp,n,0.6,0.6,,,1,0,112,112,112,1,,,,,,,,,,,,,,,,,,,,,,,,,,,,,,,,,,,,,,,,,
,example3,1,2025-01-01_00h00.00.000,PGNGS_shapes_600ms_v11r1,2022.2.5,Win32,59.52380952,,,,,,L_HalfOval.bmp,None,L_square.bmp,None,L_pentagon.bmp,None,L_circle.bmp,n,L_pentagon.bmp,None,L_pentagon.bmp,None,0.6,0.6,,,1,0,113,113,113,1,,,,,,,,,,,,,,,,,,,,,,,,,,,,,,,,,,,,,,,,,
,example3,1,2025-01-01_00h00.00.000,PGNGS_shapes_600ms_v11r1,2022.2.5,Win32,59.52380952,,,,,,L_pentagon.bmp,None,L_parallelogram.bmp,None,L_diamond.bmp,n,L_pentagon.bmp,None,L_diamond.bmp,n,L_square.bmp,None,0.6,0.6,,,1,0,114,114,114,1,,,,,,,,,,,,,,,,,,,,,,,,,,,,,,,,,,,,,,,,,
,example3,1,2025-01-01_00h00.00.000,PGNGS_shapes_600ms_v11r1,2022.2.5,Win32,59.52380952,,,,,,L_square.bmp,None,L_HalfOval.bmp,None,L_HalfOval.bmp,None,L_square.bmp,None,L_HalfOval.bmp,None,L_HalfOval.bmp,None,0.6,0.6,,,1,0,115,115,115,1,,,,,,,,,,,,,,,,,,,,,,,,,,,,,,,,,,,,,,,,,
,example3,1,2025-01-01_00h00.00.000,PGNGS_shapes_600ms_v11r1,2022.2.5,Win32,59.52380952,,,,,,L_diamond.bmp,n,L_pentagon.bmp,None,L_square.bmp,None,L_parallelogram.bmp,None,L_square.bmp,None,L_pentagon.bmp,None,0.6,0.6,,n,1,0,116,116,116,1,0.5645,,,,,,,,,,,,,,,,,,,,,,,,,,,,,,,,,,,,,,,,
,example3,1,2025-01-01_00h00.00.000,PGNGS_shapes_600ms_v11r1,2022.2.5,Win32,59.52380952,,,,,,L_HalfOval.bmp,None,L_diamond.bmp,None,L_pentagon.bmp,None,L_diamond.bmp,n,L_parallelogram.bmp,None,L_diamond.bmp,None,0.6,0.25,,,1,0,117,117,117,1,,,,,,,,,,,,,,,,,,,,,,,,,,,,,,,,,,,,,,,,,
,example3,1,2025-01-01_00h00.00.000,PGNGS_shapes_600ms_v11r1,2022.2.5,Win32,59.52380952,,,,,,L_square.bmp,None,L_parallelogram.bmp,None,L_square.bmp,None,L_pentagon.bmp,None,L_HalfOval.bmp,None,Stop.bmp,None,0.6,0.45,,,1,0,118,118,118,1,,,,,,,,,,,,,,,,,,,,,,,,,,,,,,,,,,,,,,,,,
,example3,1,2025-01-01_00h00.00.000,PGNGS_shapes_600ms_v11r1,2022.2.5,Win32,59.52380952,,,,,,L_pentagon.bmp,None,L_pentagon.bmp,None,L_HalfOval.bmp,None,L_parallelogram.bmp,None,L_square.bmp,None,L_HalfOval.bmp,None,0.6,0.6,,,1,0,119,119,119,1,,,,,,,,,,,,,,,,,,,,,,,,,,,,,,,,,,,,,,,,,
,example3,1,2025-01-01_00h00.00.000,PGNGS_shapes_600ms_v11r1,2022.2.5,Win32,59.52380952,,,,,,L_diamond.bmp,n,L_square.bmp,None,L_parallelogram.bmp,None,L_square.bmp,None,L_pentagon.bmp,None,L_square.bmp,None,0.6,0.6,,n,1,0,120,120,120,1,0.5188,,,,,,,,,,,,,,,,,,,,,,,,,,,,,,,,,,,,,,,,
,example3,1,2025-01-01_00h00.00.000,PGNGS_shapes_600ms_v11r1,2022.2.5,Win32,59.52380952,,,,,,L_parallelogram.bmp,None,L_circle.bmp,n,L_circle.bmp,None,L_parallelogram.bmp,None,L_circle.bmp,n,L_circle.bmp,n,0.25,0.6,,,1,0,121,121,121,1,,,,,,,,,,,,,,,,,,,,,,,,,,,,,,,,,,,,,,,,,
,example3,1,2025-01-01_00h00.00.000,PGNGS_shapes_600ms_v11r1,2022.2.5,Win32,59.52380952,,,,,,L_HalfOval.bmp,None,L_parallelogram.bmp,None,Stop.bmp,None,L_HalfOval.bmp,None,L_square.bmp,None,L_pentagon.bmp,None,0.45,0.6,,,1,0,122,122,122,1,,,,,,,,,,,,,,,,,,,,,,,,,,,,,,,,,,,,,,,,,
,example3,1,2025-01-01_00h00.00.000,PGNGS_shapes_600ms_v11r1,2022.2.5,Win32,59.52380952,,,,,,L_circle.bmp,n,L_square.bmp,None,L_parallelogram.bmp,None,L_triangle.bmp,n,L_pentagon.bmp,None,L_square.bmp,None,0.6,0.6,,,0,0,123,123,123,1,,,,,,,,,,,,,,,,,,,,,,,,,,,,,,,,,,,,,,,,,
,example3,1,2025-01-01_00h00.00.000,PGNGS_shapes_600ms_v11r1,2022.2.5,Win32,59.52380952,,,,,,L_pentagon.bmp,None,L_pentagon.bmp,None,L_square.bmp,None,L_parallelogram.bmp,None,L_diamond.bmp,n,L_parallelogram.bmp,None,0.6,0.6,,n,0,0,124,124,124,1,0.0112,,,,,,,,,,,,,,,,,,,,,,,,,,,,,,,,,,,,,,,,
,example3,1,2025-01-01_00h00.00.000,PGNGS_shapes_600ms_v11r1,2022.2.5,Win32,59.52380952,,,,,,L_parallelogram.bmp,None,L_HalfOval.bmp,None,L_diamond.bmp,n,L_HalfOval.bmp,None,L_parallelogram.bmp,None,L_HalfOval.bmp,None,0.6,0.6,,,1,0,125,125,125,1,,,,,,,,,,,,,,,,,,,,,,,,,,,,,,,,,,,,,,,,,
,example3,1,2025-01-01_00h00.00.000,PGNGS_shapes_600ms_v11r1,2022.2.5,Win32,59.52380952,,,,,,L_square.bmp,None,L_parallelogram.bmp,None,L_HalfOval.bmp,None,L_pentagon.bmp,None,L_HalfOval.bmp,None,L_pentagon.bmp,None,0.6,0.6,,,1,0,126,126,126,1,,,,,,,,,,,,,,,,,,,,,,,,,,,,,,,,,,,,,,,,,
,example3,1,2025-01-01_00h00.00.000,PGNGS_shapes_600ms_v11r1,2022.2.5,Win32,59.52380952,,,,,,L_pentagon.bmp,None,L_square.bmp,None,L_pentagon.bmp,None,L_parallelogram.bmp,None,L_square.bmp,None,L_square.bmp,None,0.6,0.6,,,1,0,127,127,127,1,,,,,,,,,,,,,,,,,,,,,,,,,,,,,,,,,,,,,,,,,
,example3,1,2025-01-01_00h00.00.000,PGNGS_shapes_600ms_v11r1,2022.2.5,Win32,59.52380952,,,,,,L_square.bmp,None,L_circle.bmp,None,L_square.bmp,None,L_HalfOval.bmp,None,L_diamond.bmp,None,L_HalfOval.bmp,None,0.6,0.6,,,1,0,128,128,128,1,,,,,,,,,,,,,,,,,,,,,,,,,,,,,,,,,,,,,,,,,
,example3,1,2025-01-01_00h00.00.000,PGNGS_shapes_600ms_v11r1,2022.2.5,Win32,59.52380952,,,,,,L_HalfOval.bmp,None,L_parallelogram.bmp,None,L_circle.bmp,n,L_square.bmp,None,L_pentagon.bmp,None,L_parallelogram.bmp,None,0.6,0.6,,,1,0,129,129,129,1,,,,,,,,,,,,,,,,,,,,,,,,,,,,,,,,,,,,,,,,,
,example3,1,2025-01-01_00h00.00.000,PGNGS_shapes_600ms_v11r1,2022.2.5,Win32,59.52380952,,,,,,L_square.bmp,None,L_square.bmp,None,L_square.bmp,None,L_pentagon.bmp,None,L_parallelogram.bmp,None,L_square.bmp,None,0.6,0.6,,,1,0,130,130,130,1,,,,,,,,,,,,,,,,,,,,,,,,,,,,,,,,,,,,,,,,,
,example3,1,2025-01-01_00h00.00.000,PGNGS_shapes_600ms_v11r1,2022.2.5,Win32,59.52380952,,,,,,L_parallelogram.bmp,None,L_HalfOval.bmp,None,L_HalfOval.bmp,None,L_HalfOval.bmp,None,L_HalfOval.bmp,None,L_triangle.bmp,n,0.6,0.6,,,1,0,131,131,131,1,,,,,,,,,,,,,,,,,,,,,,,,,,,,,,,,,,,,,,,,,
,example3,1,2025-01-01_00h00.00.000,PGNGS_shapes_600ms_v11r1,2022.2.5,Win32,59.52380952,,,,,,L_pentagon.bmp,None,L_diamond.bmp,n,L_diamond.bmp,n,L_square.bmp,None,L_square.bmp,None,L_HalfOval.bmp,None,0.6,0.6,,,1,0,132,132,132,1,,,,,,,,,,,,,,,,,,,,,,,,,,,,,,,,,,,,,,,,,
,example3,1,2025-01-01_00h00.00.000,PGNGS_shapes_600ms_v11r1,2022.2.5,Win32,59.52380952,,,,,,L_square.bmp,None,L_HalfOval.bmp,None,L_square.bmp,None,L_parallelogram.bmp,None,L_pentagon.bmp,None,L_pentagon.bmp,None,0.6,0.6,,,1,0,133,133,133,1,,,,,,,,,,,,,,,,,,,,,,,,,,,,,,,,,,,,,,,,,
,example3,1,2025-01-01_00h00.00.000,PGNGS_shapes_600ms_v11r1,2022.2.5,Win32,59.52380952,,,,,,L_HalfOval.bmp,None,L_parallelogram.bmp,None,L_HalfOval.bmp,None,L_HalfOval.bmp,None,L_circle.bmp,n,L_circle.bmp,n,0.6,0.6,,,1,0,134,134,134,1,,,,,,,,,,,,,,,,,,,,,,,,,,,,,,,,,,,,,,,,,
,example3,1,2025-01-01_00h00.00.000,PGNGS_shapes_600ms_v11r1,2022.2.5,Win32,59.52380952,,,,,,L_circle.bmp,n,L_pentagon.bmp,None,L_parallelogram.bmp,None,L_diamond.bmp,n,L_square.bmp,None,L_pentagon.bmp,None,0.6,0.6,,n,1,0,135,135,135,1,0.5414,,,,,,,,,,,,,,,,,,,,,,,,,,,,,,,,,,,,,,,,
,example3,1,2025-01-01_00h00.00.000,PGNGS_shapes_600ms_v11r1,2022.2.5,Win32,59.52380952,,,,,,L_pentagon.bmp,None,L_circle.bmp,n,L_pentagon.bmp,None,L_square.bmp,None,L_HalfOval.bmp,None,L_parallelogram.bmp,None,0.6,0.6,,,1,0,136,136,136,1,,,,,,,,,,,,,,,,,,,,,,,,,,,,,,,,,,,,,,,,,
,example3,1,2025-01-01_00h00.00.000,PGNGS_shapes_600ms_v11r1,2022.2.5,Win32,59.52380952,,,,,,L_parallelogram.bmp,None,L_parallelogram.bmp,None,L_square.bmp,None,L_parallelogram.bmp,None,L_parallelogram.bmp,None,L_square.bmp,None,0.6,0.6,,,1,0,137,137,137,1,,,,,,,,,,,,,,,,,,,,,,,,,,,,,,,,,,,,,,,,,
,example3,1,2025-01-01_00h00.00.000,PGNGS_shapes_600ms_v11r1,2022.2.5,Win32,59.52380952,,,,,,L_diamond.bmp,n,L_square.bmp,None,L_pentagon.bmp,None,L_diamond.bmp,n,L_pentagon.bmp,None,L_diamond.bmp,None,0.6,0.25,,,0,0,138,138,138,1,,,,,,,,,,,,,,,,,,,,,,,,,,,,,,,,,,,,,,,,,
,example3,1,2025-01-01_00h00.00.000,PGNGS_shapes_600ms_v11r1,2022.2.5,Win32,59.52380952,,,,,,L_square.bmp,None,L_diamond.bmp,n,L_HalfOval.bmp,None,L_parallelogram.bmp,None,L_square.bmp,None,Stop.bmp,None,0.6,0.45,,n,0,0,139,139,139,1,0.1236,,,,,,,,,,,,,,,,,,,,,,,,,,,,,,,,,,,,,,,,
,example3,1,2025-01-01_00h00.00.000,PGNGS_shapes_600ms_v11r1,2022.2.5,Win32,59.52380952,,,,,,L_pentagon.bmp,None,L_square.bmp,None,L_square.bmp,None,L_pentagon.bmp,None,L_parallelogram.bmp,None,L_parallelogram.bmp,None,0.6,0.6,,,1,0,140,140,140,1,,,,,,,,,,,,,,,,,,,,,,,,,,,,,,,,,,,,,,,,,
,example3,1,2025-01-01_00h00.00.000,PGNGS_shapes_600ms_v11r1,2022.2.5,Win32,59.52380952,,,,,,L_HalfOval.bmp,None,L_HalfOval.bmp,None,L_pentagon.bmp,None,L_HalfOval.bmp,None,L_triangle.bmp,n,L_pentagon.bmp,None,0.6,0.6,,,1,0,141,141,141,1,,,,,,,,,,,,,,,,,,,,,,,,,,,,,,,,,,,,,,,,,
,example3,1,2025-01-01_00h00.00.000,PGNGS_shapes_600ms_v11r1,2022.2.5,Win32,59.52380952,,,,,,L_circle.bmp,n,L_circle.bmp,n,L_HalfOval.bmp,None,L_triangle.bmp,n,L_HalfOval.bmp,None,L_square.bmp,None,0.6,0.6,,n,1,0,142,142,142,1,0.5671,,,,,,,,,,,,,,,,,,,,,,,,,,,,,,,,,,,,,,,,
,example3,1,2025-01-01_00h00.00.000,PGNGS_shapes_600ms_v11r1,2022.2.5,Win32,59.52380952,,,,,,L_square.bmp,None,L_pentagon.bmp,None,L_square.bmp,None,L_HalfOval.bmp,None,L_square.bmp,None,L_parallelogram.bmp,None,0.6,0.6,,,1,0,143,143,143,1,,,,,,,,,,,,,,,,,,,,,,,,,,,,,,,,,,,,,,,,,
,example3,1,2025-01-01_00h00.00.000,PGNGS_shapes_600ms_v11r1,2022.2.5,Win32,59.52380952,,,,,,L_HalfOval.bmp,None,L_square.bmp,None,L_parallelogram.bmp,None,L_parallelogram.bmp,None,L_HalfOval.bmp,None,L_HalfOval.bmp,None,0.6,0.6,,,1,0,144,144,144,1,,,,,,,,,,,,,,,,,,,,,,,,,,,,,,,,,,,,,,,,,
,example3,1,2025-01-01_00h00.00.000,PGNGS_shapes_600ms_v11r1,2022.2.5,Win32,59.52380952,,,,,,L_circle.bmp,n,L_parallelogram.bmp,None,L_square.bmp,None,L_circle.bmp,n,L_parallelogram.bmp,None,L_pentagon.bmp,None,0.6,0.6,,n,1,0,145,145,145,1,0.5319,,,,,,,,,,,,,,,,,,,,,,,,,,,,,,,,,,,,,,,,
,example3,1,2025-01-01_00h00.00.000,PGNGS_shapes_600ms_v11r1,2022.2.5,Win32,59.52380952,,,,,,L_parallelogram.bmp,None,L_HalfOval.bmp,None,L_pentagon.bmp,None,L_pentagon.bmp,None,L_pentagon.bmp,None,L_parallelogram.bmp,None,0.6,0.6,,,1,0,146,146,146,1,,,,,,,,,,,,,,,,,,,,,,,,,,,,,,,,,,,,,,,,,
,example3,1,2025-01-01_00h00.00.000,PGNGS_shapes_600ms_v11r1,2022.2.5,Win32,59.52380952,,,,,,L_pentagon.bmp,None,L_pentagon.bmp,None,L_HalfOval.bmp,None,L_square.bmp,None,L_HalfOval.bmp,None,L_HalfOval.bmp,None,0.6,0.6,,,1,0,147,147,147,1,,,,,,,,,,,,,,,,,,,,,,,,,,,,,,,,,,,,,,,,,
,example3,1,2025-01-01_00h00.00.000,PGNGS_shapes_600ms_v11r1,2022.2.5,Win32,59.52380952,,,,,,L_square.bmp,None,L_parallelogram.bmp,None,L_square.bmp,None,L_parallelogram.bmp,None,L_square.bmp,None,L_parallelogram.bmp,None,0.6,0.6,,,1,0,148,148,148,1,,,,,,,,,,,,,,,,,,,,,,,,,,,,,,,,,,,,,,,,,
,example3,1,2025-01-01_00h00.00.000,PGNGS_shapes_600ms_v11r1,2022.2.5,Win32,59.52380952,,,,,,L_HalfOval.bmp,None,L_pentagon.bmp,None,L_circle.bmp,None,L_pentagon.bmp,None,L_pentagon.bmp,None,L_HalfOval.bmp,None,0.25,0.6,,,1,0,149,149,149,1,,,,,,,,,,,,,,,,,,,,,,,,,,,,,,,,,,,,,,,,,
,example3,1,2025-01-01_00h00.00.000,PGNGS_shapes_600ms_v11r1,2022.2.5,Win32,59.52380952,,,,,,L_parallelogram.bmp,None,L_diamond.bmp,n,Stop.bmp,None,L_HalfOval.bmp,None,L_parallelogram.bmp,None,L_triangle.bmp,n,0.45,0.6,,,1,0,150,150,150,1,,,,,,,,,,,,,,,,,,,,,,,,,,,,,,,,,,,,,,,,,
,example3,1,2025-01-01_00h00.00.000,PGNGS_shapes_600ms_v11r1,2022.2.5,Win32,59.52380952,,,,,,L_square.bmp,None,L_pentagon.bmp,None,L_parallelogram.bmp,None,L_parallelogram.bmp,None,L_HalfOval.bmp,None,L_square.bmp,None,0.6,0.6,,,1,0,151,151,151,1,,,,,,,,,,,,,,,,,,,,,,,,,,,,,,,,,,,,,,,,,
,example3,1,2025-01-01_00h00.00.000,PGNGS_shapes_600ms_v11r1,2022.2.5,Win32,59.52380952,,,,,,L_pentagon.bmp,None,L_HalfOval.bmp,None,L_pentagon.bmp,None,L_square.bmp,None,L_pentagon.bmp,None,L_pentagon.bmp,None,0.6,0.6,,,1,0,152,152,152,1,,,,,,,,,,,,,,,,,,,,,,,,,,,,,,,,,,,,,,,,,
,example3,1,2025-01-01_00h00.00.000,PGNGS_shapes_600ms_v11r1,2022.2.5,Win32,59.52380952,,,,,,L_parallelogram.bmp,None,L_parallelogram.bmp,None,L_diamond.bmp,n,L_pentagon.bmp,None,L_square.bmp,None,L_parallelogram.bmp,None,0.6,0.6,,,1,0,153,153,153,1,,,,,,,,,,,,,,,,,,,,,,,,,,,,,,,,,,,,,,,,,
,example3,1,2025-01-01_00h00.00.000,PGNGS_shapes_600ms_v11r1,2022.2.5,Win32,59.52380952,,,,,,L_circle.bmp,n,L_pentagon.bmp,None,L_parallelogram.bmp,None,L_circle.bmp,n,L_triangle.bmp,None,L_pentagon.bmp,None,0.6,0.6,,,0,0,154,154,154,1,,,,,,,,,,,,,,,,,,,,,,,,,,,,,,,,,,,,,,,,,
,example3,1,2025-01-01_00h00.00.000,PGNGS_shapes_600ms_v11r1,2022.2.5,Win32,59.52380952,,,,,,L_HalfOval.bmp,None,L_HalfOval.bmp,None,L_HalfOval.bmp,None,L_square.bmp,None,L_HalfOval.bmp,None,L_HalfOval.bmp,None,0.6,0.6,,n,0,0,155,155,155,1,0.0703,,,,,,,,,,,,,,,,,,,,,,,,,,,,,,,,,,,,,,,,
,example3,1,2025-01-01_00h00.00.000,PGNGS_shapes_600ms_v11r1,2022.2.5,Win32,59.52380952,,,,,,L_pentagon.bmp,None,L_square.bmp,None,L_square.bmp,None,L_pentagon.bmp,None,L_parallelogram.bmp,None,L_pentagon.bmp,None,0.6,0.6,,,1,0,156,156,156,1,,,,,,,,,,,,,,,,,,,,,,,,,,,,,,,,,,,,,,,,,
,example3,1,2025-01-01_00h00.00.000,PGNGS_shapes_600ms_v11r1,2022.2.5,Win32,59.52380952,,,,,,L_square.bmp,None,L_pentagon.bmp,None,L_circle.bmp,n,L_HalfOval.bmp,None,L_square.bmp,None,L_square.bmp,None,0.6,0.6,,,1,0,157,157,157,1,,,,,,,,,,,,,,,,,,,,,,,,,,,,,,,,,,,,,,,,,
,example3,1,2025-01-01_00h00.00.000,PGNGS_shapes_600ms_v11r1,2022.2.5,Win32,59.52380952,,,,,,L_HalfOval.bmp,None,L_HalfOval.bmp,None,L_parallelogram.bmp,None,L_pentagon.bmp,None,L_circle.bmp,n,L_pentagon.bmp,None,0.6,0.6,,,1,0,158,158,158,1,,,,,,,,,,,,,,,,,,,,,,,,,,,,,,,,,,,,,,,,,
,example3,1,2025-01-01_00h00.00.000,PGNGS_shapes_600ms_v11r1,2022.2.5,Win32,59.52380952,,,,,,L_parallelogram.bmp,None,L_square.bmp,None,L_square.bmp,None,L_parallelogram.bmp,None,L_square.bmp,None,L_square.bmp,None,0.6,0.6,,,1,0,159,159,159,1,,,,,,,,,,,,,,,,,,,,,,,,,,,,,,,,,,,,,,,,,
,example3,1,2025-01-01_00h00.00.000,PGNGS_shapes_600ms_v11r1,2022.2.5,Win32,59.52380952,,,,,,L_pentagon.bmp,None,L_parallelogram.bmp,None,L_HalfOval.bmp,None,L_HalfOval.bmp,None,L_parallelogram.bmp,None,L_diamond.bmp,None,0.6,0.3,,,1,0,160,160,160,1,,,,,,,,,,,,,,,,,,,,,,,,,,,,,,,,,,,,,,,,,
,example3,1,2025-01-01_00h00.00.000,PGNGS_shapes_600ms_v11r1,2022.2.5,Win32,59.52380952,,,,,,L_square.bmp,None,L_pentagon.bmp,None,L_diamond.bmp,None,L_square.bmp,None,L_pentagon.bmp,None,Stop.bmp,None,0.3,0.4,,,1,0,161,161,161,1,,,,,,,,,,,,,,,,,,,,,,,,,,,,,,,,,,,,,,,,,
,example3,1,2025-01-01_00h00.00.000,PGNGS_shapes_600ms_v11r1,2022.2.5,Win32,59.52380952,,,,,,L_HalfOval.bmp,None,L_HalfOval.bmp,None,Stop.bmp,None,L_pentagon.bmp,None,L_square.bmp,None,L_square.bmp,None,0.4,0.6,,,1,0,162,162,162,1,,,,,,,,,,,,,,,,,,,,,,,,,,,,,,,,,,,,,,,,,
,example3,1,2025-01-01_00h00.00.000,PGNGS_shapes_600ms_v11r1,2022.2.5,Win32,59.52380952,,,,,,L_pentagon.bmp,None,L_parallelogram.bmp,None,L_HalfOval.bmp,None,L_HalfOval.bmp,None,L_HalfOval.bmp,None,L_HalfOval.bmp,None,0.6,0.6,,,1,0,163,163,163,1,,,,,,,,,,,,,,,,,,,,,,,,,,,,,,,,,,,,,,,,,
,example3,1,2025-01-01_00h00.00.000,PGNGS_shapes_600ms_v11r1,2022.2.5,Win32,59.52380952,,,,,,L_parallelogram.bmp,None,L_square.bmp,None,L_parallelogram.bmp,None,L_square.bmp,None,L_parallelogram.bmp,None,L_pentagon.bmp,None,0.6,0.6,,,1,0,164,164,164,1,,,,,,,,,,,,,,,,,,,,,,,,,,,,,,,,,,,,,,,,,
,example3,1,2025-01-01_00h00.00.000,PGNGS_shapes_600ms_v11r1,2022.2.5,Win32,59.52380952,,,,,,L_HalfOval.bmp,None,L_HalfOval.bmp,None,L_pentagon.bmp,None,L_parallelogram.bmp,None,L_square.bmp,None,L_parallelogram.bmp,None,0.6,0.6,,,1,0,165,165,165,1,,,,,,,,,,,,,,,,,,,,,,,,,,,,,,,,,,,,,,,,,
,example3,1,2025-01-01_00h00.00.000,PGNGS_shapes_600ms_v11r1,2022.2.5,Win32,59.52380952,,,,,,L_pentagon.bmp,None,L_diamond.bmp,None,L_square.bmp,None,L_pentagon.bmp,None,L_pentagon.bmp,None,L_HalfOval.bmp,None,0.6,0.6,,,1,0,166,166,166,1,,,,,,,,,,,,,,,,,,,,,,,,,,,,,,,,,,,,,,,,,
,example3,1,2025-01-01_00h00.00.000,PGNGS_shapes_600ms_v11r1,2022.2.5,Win32,59.52380952,,,,,,L_square.bmp,None,L_parallelogram.bmp,None,L_HalfOval.bmp,None,L_HalfOval.bmp,None,L_HalfOval.bmp,None,L_circle.bmp,n,0.6,0.6,,,1,0,167,167,167,1,,,,,,,,,,,,,,,,,,,,,,,,,,,,,,,,,,,,,,,,,
,example3,1,2025-01-01_00h00.00.000,PGNGS_shapes_600ms_v11r1,2022.2.5,Win32,59.52380952,,,,,,,,,,,,,,,,,,,,,,,,,,,,,,,,,,,,,,,,,,,,,,,,,,,,,,,,,,,,,,,,,,,,
,example3,1,2025-01-01_00h00.00.000,PGNGS_shapes_600ms_v11r1,2022.2.5,Win32,59.52380952,,,,,,,,,,,,,,,,,,,,,,,,,,,,,,,,,,,,,,,,,,,,,,,,,,,,,,,,,,,,,,,,,,,,
,example3,1,2025-01-01_00h00.00.000,PGNGS_shapes_600ms_v11r1,2022.2.5,Win32,59.52380952,,,,,,,,,,,,,,,,,,,,,,,,,,,,,,,,,,,,,,,,,,,,,,,,,,,,,,,,,,,,,,,,,,,,
,example3,1,2025-01-01_00h00.00.000,PGNGS_shapes_600ms_v11r1,2022.2.5,Win32,59.52380952,,,,,,L_square.bmp,None,L_pentagon.bmp,None,L_pentagon.bmp,None,L_HalfOval.bmp,None,L_pentagon.bmp,None,L_parallelogram.bmp,None,0.6,0.6,L_parallelogram_t.bmp,,,,,,,,,,1,0,0,0,0,1,,,,,,,,,,,,,,,,,,,,,,,,,,,,,,,,,
,example3,1,2025-01-01_00h00.00.000,PGNGS_shapes_600ms_v11r1,2022.2.5,Win32,59.52380952,,,,,,L_parallelogram.bmp,None,L_parallelogram.bmp,None,L_square.bmp,None,L_square.bmp,None,L_parallelogram.bmp,None,L_square.bmp,None,0.6,0.6,L_square_t.bmp,,,,,,,,,,1,0,1,1,1,1,,,,,,,,,,,,,,,,,,,,,,,,,,,,,,,,,
,example3,1,2025-01-01_00h00.00.000,PGNGS_shapes_600ms_v11r1,2022.2.5,Win32,59.52380952,,,,,,L_circle.bmp,n,L_HalfOval.bmp,None,L_HalfOval.bmp,None,L_circle.bmp,n,L_square.bmp,None,L_HalfOval.bmp,None,0.6,0.6,L_pentagon_t.bmp,,,,,,,,,,1,0,2,2,2,1,,,,,,,,,,,,,,,,,,,,,,,,,,,,,,,,,
,example3,1,2025-01-01_00h00.00.000,PGNGS_shapes_600ms_v11r1,2022.2.5,Win32,59.52380952,,,,,,L_HalfOval.bmp,None,L_diamond.bmp,n,L_diamond.bmp,n,L_square.bmp,None,L_parallelogram.bmp,None,L_triangle.bmp,n,0.6,0.6,L_triangle_t.bmp,,,,,,,,,,0,0,3,3,3,1,,,,,,,,,,,,,,,,,,,,,,,,,,,,,,,,,
,example3,1,2025-01-01_00h00.00.000,PGNGS_shapes_600ms_v11r1,2022.2.5,Win32,59.52380952,,,,,,L_square.bmp,None,L_parallelogram.bmp,None,L_parallelogram.bmp,None,L_parallelogram.bmp,None,L_pentagon.bmp,None,L_parallelogram.bmp,None,0.6,0.6,L_diamond_t.bmp,,,,,,,,,,1,0,4,4,4,1,,,,,,,,,,,,,,,,,,,,,,,,,,,,,,,,,
,example3,1,2025-01-01_00h00.00.000,PGNGS_shapes_600ms_v11r1,2022.2.5,Win32,59.52380952,,,,,,L_pentagon.bmp,None,L_pentagon.bmp,None,L_square.bmp,None,L_pentagon.bmp,None,L_triangle.bmp,n,L_HalfOval.bmp,None,0.6,0.6,L_HalfOval_t.bmp,,,,,,,,,,1,0,5,5,5,1,,,,,,,,,,,,,,,,,,,,,,,,,,,,,,,,,
,example3,1,2025-01-01_00h00.00.000,PGNGS_shapes_600ms_v11r1,2022.2.5,Win32,59.52380952,,,,,,L_diamond.bmp,n,L_square.bmp,None,L_pentagon.bmp,None,L_square.bmp,None,L_pentagon.bmp,None,L_pentagon.bmp,None,0.6,0.6,L_circle_t.bmp,,,,,,,,,,1,0,6,6,6,1,,,,,,,,,,,,,,,,,,,,,,,,,,,,,,,,,
,example3,1,2025-01-01_00h00.00.000,PGNGS_shapes_600ms_v11r1,2022.2.5,Win32,59.52380952,,,,,,L_HalfOval.bmp,None,L_HalfOval.bmp,None,L_square.bmp,None,L_HalfOval.bmp,None,L_HalfOval.bmp,None,L_circle.bmp,n,0.6,0.6,,,,,,,,,,,1,0,7,7,7,1,,,,,,,,,,,,,,,,,,,,,,,,,,,,,,,,,
,example3,1,2025-01-01_00h00.00.000,PGNGS_shapes_600ms_v11r1,2022.2.5,Win32,59.52380952,,,,,,L_parallelogram.bmp,None,L_parallelogram.bmp,None,L_parallelogram.bmp,None,L_parallelogram.bmp,None,L_parallelogram.bmp,None,L_square.bmp,None,0.6,0.6,,,,,,,,,,,1,0,8,8,8,1,,,,,,,,,,,,,,,,,,,,,,,,,,,,,,,,,
,example3,1,2025-01-01_00h00.00.000,PGNGS_shapes_600ms_v11r1,2022.2.5,Win32,59.52380952,,,,,,L_pentagon.bmp,None,L_circle.bmp,n,L_circle.bmp,n,L_square.bmp,None,L_square.bmp,None,L_parallelogram.bmp,None,0.6,0.6,,,,,,,,,,,0,0,9,9,9,1,,,,,,,,,,,,,,,,,,,,,,,,,,,,,,,,,
,example3,1,2025-01-01_00h00.00.000,PGNGS_shapes_600ms_v11r1,2022.2.5,Win32,59.52380952,,,,,,L_HalfOval.bmp,None,L_pentagon.bmp,None,L_pentagon.bmp,None,L_pentagon.bmp,None,L_HalfOval.bmp,None,L_pentagon.bmp,None,0.6,0.6,,,,,,,,,,n,0,0,10,10,10,1,0.1146,,,,,,,,,,,,,,,,,,,,,,,,,,,,,,,,
,example3,1,2025-01-01_00h00.00.000,PGNGS_shapes_600ms_v11r1,2022.2.5,Win32,59.52380952,,,,,,L_square.bmp,None,L_square.bmp,None,L_square.bmp,None,L_HalfOval.bmp,None,L_parallelogram.bmp,None,L_square.bmp,None,0.6,0.6,,,,,,,,,,,1,0,11,11,11,1,,,,,,,,,,,,,,,,,,,,,,,,,,,,,,,,,
,example3,1,2025-01-01_00h00.00.000,PGNGS_shapes_600ms_v11r1,2022.2.5,Win32,59.52380952,,,,,,L_parallelogram.bmp,None,L_HalfOval.bmp,None,L_HalfOval.bmp,None,L_triangle.bmp,n,L_square.bmp,None,L_diamond.bmp,None,0.6,0.25,,,,,,,,,,,1,0,12,12,12,1,,,,,,,,,,,,,,,,,,,,,,,,,,,,,,,,,
,example3,1,2025-01-01_00h00.00.000,PGNGS_shapes_600ms_v11r1,2022.2.5,Win32,59.52380952,,,,,,L_diamond.bmp,n,L_parallelogram.bmp,None,L_pentagon.bmp,None,L_parallelogram.bmp,None,L_parallelogram.bmp,None,Stop.bmp,None,0.6,500,,,,,,,,,,,1,0,13,13,13,1,,,,,,,,,,,,,,,,,,,,,,,,,,,,,,,,,
,example3,1,2025-01-01_00h00.00.000,PGNGS_shapes_600ms_v11r1,2022.2.5,Win32,59.52380952,,,,,,L_pentagon.bmp,None,L_pentagon.bmp,None,L_parallelogram.bmp,None,L_square.bmp,None,L_HalfOval.bmp,None,L_parallelogram.bmp,None,0.6,0.6,,,,,,,,,,,1,0,14,14,14,1,,,,,,,,,,,,,,,,,,,,,,,,,,,,,,,,,
,example3,1,2025-01-01_00h00.00.000,PGNGS_shapes_600ms_v11r1,2022.2.5,Win32,59.52380952,,,,,,L_square.bmp,None,L_square.bmp,None,L_square.bmp,None,L_HalfOval.bmp,None,L_parallelogram.bmp,None,L_HalfOval.bmp,None,0.6,0.6,,,,,,,,,,,1,0,15,15,15,1,,,,,,,,,,,,,,,,,,,,,,,,,,,,,,,,,
,example3,1,2025-01-01_00h00.00.000,PGNGS_shapes_600ms_v11r1,2022.2.5,Win32,59.52380952,,,,,,L_parallelogram.bmp,None,L_circle.bmp,None,L_diamond.bmp,None,L_circle.bmp,n,L_pentagon.bmp,None,L_triangle.bmp,n,0.25,0.6,,,,,,,,,,,1,0,16,16,16,1,,,,,,,,,,,,,,,,,,,,,,,,,,,,,,,,,
,example3,1,2025-01-01_00h00.00.000,PGNGS_shapes_600ms_v11r1,2022.2.5,Win32,59.52380952,,,,,,L_diamond.bmp,n,L_pentagon.bmp,None,Stop.bmp,None,L_HalfOval.bmp,None,L_diamond.bmp,n,L_square.bmp,None,0.45,0.6,,,,,,,,,,,1,0,17,17,17,1,,,,,,,,,,,,,,,,,,,,,,,,,,,,,,,,,
,example3,1,2025-01-01_00h00.00.000,PGNGS_shapes_600ms_v11r1,2022.2.5,Win32,59.52380952,,,,,,L_pentagon.bmp,None,L_parallelogram.bmp,None,L_HalfOval.bmp,None,L_parallelogram.bmp,None,L_square.bmp,None,L_HalfOval.bmp,None,0.6,0.6,,,,,,,,,,,1,0,18,18,18,1,,,,,,,,,,,,,,,,,,,,,,,,,,,,,,,,,
,example3,1,2025-01-01_00h00.00.000,PGNGS_shapes_600ms_v11r1,2022.2.5,Win32,59.52380952,,,,,,L_HalfOval.bmp,None,L_square.bmp,None,L_parallelogram.bmp,None,L_pentagon.bmp,None,L_parallelogram.bmp,None,L_diamond.bmp,n,0.6,0.6,,,,,,,,,,,1,0,19,19,19,1,,,,,,,,,,,,,,,,,,,,,,,,,,,,,,,,,
,example3,1,2025-01-01_00h00.00.000,PGNGS_shapes_600ms_v11r1,2022.2.5,Win32,59.52380952,,,,,,L_square.bmp,None,L_parallelogram.bmp,None,L_square.bmp,None,L_circle.bmp,n,L_diamond.bmp,None,L_HalfOval.bmp,None,0.6,0.6,,,,,,,,,,,1,0,20,20,20,1,,,,,,,,,,,,,,,,,,,,,,,,,,,,,,,,,
,example3,1,2025-01-01_00h00.00.000,PGNGS_shapes_600ms_v11r1,2022.2.5,Win32,59.52380952,,,,,,L_pentagon.bmp,None,L_diamond.bmp,n,L_pentagon.bmp,None,L_parallelogram.bmp,None,L_pentagon.bmp,None,L_parallelogram.bmp,None,0.6,0.6,,,,,,,,,,n,1,0,21,21,21,1,0.5571,,,,,,,,,,,,,,,,,,,,,,,,,,,,,,,,
,example3,1,2025-01-01_00h00.00.000,PGNGS_shapes_600ms_v11r1,2022.2.5,Win32,59.52380952,,,,,,L_parallelogram.bmp,None,L_square.bmp,None,L_circle.bmp,n,L_pentagon.bmp,None,L_parallelogram.bmp,None,L_pentagon.bmp,None,0.6,0.6,,,,,,,,,,,1,0,22,22,22,1,,,,,,,,,,,,,,,,,,,,,,,,,,,,,,,,,
,example3,1,2025-01-01_00h00.00.000,PGNGS_shapes_600ms_v11r1,2022.2.5,Win32,59.52380952,,,,,,L_HalfOval.bmp,None,L_pentagon.bmp,None,L_parallelogram.bmp,None,L_HalfOval.bmp,None,L_HalfOval.bmp,None,L_triangle.bmp,n,0.6,0.6,,,,,,,,,,,1,0,23,23,23,1,,,,,,,,,,,,,,,,,,,,,,,,,,,,,,,,,
,example3,1,2025-01-01_00h00.00.000,PGNGS_shapes_600ms_v11r1,2022.2.5,Win32,59.52380952,,,,,,L_square.bmp,None,L_square.bmp,None,L_pentagon.bmp,None,L_circle.bmp,n,L_pentagon.bmp,None,L_square.bmp,None,0.6,0.6,,,,,,,,,,,1,0,24,24,24,1,,,,,,,,,,,,,,,,,,,,,,,,,,,,,,,,,
,example3,1,2025-01-01_00h00.00.000,PGNGS_shapes_600ms_v11r1,2022.2.5,Win32,59.52380952,,,,,,L_parallelogram.bmp,None,L_circle.bmp,n,L_square.bmp,None,L_square.bmp,None,L_diamond.bmp,None,L_HalfOval.bmp,None,0.6,0.6,,,,,,,,,,,0,0,25,25,25,1,,,,,,,,,,,,,,,,,,,,,,,,,,,,,,,,,
,example3,1,2025-01-01_00h00.00.000,PGNGS_shapes_600ms_v11r1,2022.2.5,Win32,59.52380952,,,,,,L_HalfOval.bmp,None,L_parallelogram.bmp,None,L_diamond.bmp,n,L_parallelogram.bmp,None,L_HalfOval.bmp,None,L_parallelogram.bmp,None,0.6,0.6,,,,,,,,,,n,0,0,26,26,26,1,0.076,,,,,,,,,,,,,,,,,,,,,,,,,,,,,,,,
,example3,1,2025-01-01_00h00.00.000,PGNGS_shapes_600ms_v11r1,2022.2.5,Win32,59.52380952,,,,,,L_square.bmp,None,L_HalfOval.bmp,None,L_HalfOval.bmp,None,L_pentagon.bmp,None,L_parallelogram.bmp,None,L_circle.bmp,None,0.6,0.4,,,,,,,,,,,1,0,27,27,27,1,,,,,,,,,,,,,,,,,,,,,,,,,,,,,,,,,
,example3,1,2025-01-01_00h00.00.000,PGNGS_shapes_600ms_v11r1,2022.2.5,Win32,59.52380952,,,,,,L_parallelogram.bmp,None,L_diamond.bmp,n,L_square.bmp,None,L_triangle.bmp,n,L_circle.bmp,n,Stop.bmp,None,0.6,0.3,,,,,,,,,,,0,0,28,28,28,1,,,,,,,,,,,,,,,,,,,,,,,,,,,,,,,,,
,example3,1,2025-01-01_00h00.00.000,PGNGS_shapes_600ms_v11r1,2022.2.5,Win32,59.52380952,,,,,,L_pentagon.bmp,n,L_pentagon.bmp,None,L_circle.bmp,n,L_parallelogram.bmp,None,L_pentagon.bmp,None,L_parallelogram.bmp,None,0.6,0.6,,,,,,,,,,,1,0,29,29,29,1,,,,,,,,,,,,,,,,,,,,,,,,,,,,,,,,,
,example3,1,2025-01-01_00h00.00.000,PGNGS_shapes_600ms_v11r1,2022.2.5,Win32,59.52380952,,,,,,L_HalfOval.bmp,None,L_parallelogram.bmp,None,L_pentagon.bmp,None,L_square.bmp,None,L_HalfOval.bmp,None,L_HalfOval.bmp,None,0.6,0.6,,,,,,,,,,,1,0,30,30,30,1,,,,,,,,,,,,,,,,,,,,,,,,,,,,,,,,,
,example3,1,2025-01-01_00h00.00.000,PGNGS_shapes_600ms_v11r1,2022.2.5,Win32,59.52380952,,,,,,L_square.bmp,None,L_HalfOval.bmp,None,L_square.bmp,None,L_HalfOval.bmp,None,L_parallelogram.bmp,None,L_pentagon.bmp,None,0.6,0.6,,,,,,,,,,,1,0,31,31,31,1,,,,,,,,,,,,,,,,,,,,,,,,,,,,,,,,,
,example3,1,2025-01-01_00h00.00.000,PGNGS_shapes_600ms_v11r1,2022.2.5,Win32,59.52380952,,,,,,L_parallelogram.bmp,None,L_square.bmp,None,L_parallelogram.bmp,None,L_pentagon.bmp,None,L_square.bmp,None,L_square.bmp,None,0.6,0.6,,,,,,,,,,,1,0,32,32,32,1,,,,,,,,,,,,,,,,,,,,,,,,,,,,,,,,,
,example3,1,2025-01-01_00h00.00.000,PGNGS_shapes_600ms_v11r1,2022.2.5,Win32,59.52380952,,,,,,L_pentagon.bmp,None,L_pentagon.bmp,None,L_HalfOval.bmp,None,L_parallelogram.bmp,None,L_pentagon.bmp,None,L_parallelogram.bmp,None,0.6,0.6,,,,,,,,,,,1,0,33,33,33,1,,,,,,,,,,,,,,,,,,,,,,,,,,,,,,,,,
,example3,1,2025-01-01_00h00.00.000,PGNGS_shapes_600ms_v11r1,2022.2.5,Win32,59.52380952,,,,,,L_diamond.bmp,n,L_HalfOval.bmp,None,L_parallelogram.bmp,None,L_HalfOval.bmp,None,L_parallelogram.bmp,None,L_diamond.bmp,n,0.6,0.6,,,,,,,,,,,1,0,34,34,34,1,,,,,,,,,,,,,,,,,,,,,,,,,,,,,,,,,
,example3,1,2025-01-01_00h00.00.000,PGNGS_shapes_600ms_v11r1,2022.2.5,Win32,59.52380952,,,,,,L_pentagon.bmp,None,L_parallelogram.bmp,None,L_square.bmp,None,L_square.bmp,None,L_square.bmp,None,L_HalfOval.bmp,None,0.6,0.6,,,,,,,,,,,1,0,35,35,35,1,,,,,,,,,,,,,,,,,,,,,,,,,,,,,,,,,
,example3,1,2025-01-01_00h00.00.000,PGNGS_shapes_600ms_v11r1,2022.2.5,Win32,59.52380952,,,,,,L_parallelogram.bmp,None,L_square.bmp,None,L_HalfOval.bmp,None,L_triangle.bmp,n,L_HalfOval.bmp,None,L_triangle.bmp,None,0.6,0.3,,,,,,,,,,,1,0,36,36,36,1,,,,,,,,,,,,,,,,,,,,,,,,,,,,,,,,,
,example3,1,2025-01-01_00h00.00.000,PGNGS_shapes_600ms_v11r1,2022.2.5,Win32,59.52380952,,,,,,L_diamond.bmp,n,L_pentagon.bmp,None,L_pentagon.bmp,None,L_parallelogram.bmp,None,L_square.bmp,None,Stop.bmp,None,0.6,0.4,,,,,,,,,,,1,0,37,37,37,1,,,,,,,,,,,,,,,,,,,,,,,,,,,,,,,,,
,example3,1,2025-01-01_00h00.00.000,PGNGS_shapes_600ms_v11r1,2022.2.5,Win32,59.52380952,,,,,,L_pentagon.bmp,None,L_diamond.bmp,None,L_square.bmp,None,L_square.bmp,None,L_triangle.bmp,n,L_parallelogram.bmp,None,0.6,0.6,,,,,,,,,,,1,0,38,38,38,1,,,,,,,,,,,,,,,,,,,,,,,,,,,,,,,,,
,example3,1,2025-01-01_00h00.00.000,PGNGS_shapes_600ms_v11r1,2022.2.5,Win32,59.52380952,,,,,,L_HalfOval.bmp,None,L_pentagon.bmp,None,L_diamond.bmp,None,L_pentagon.bmp,None,L_pentagon.bmp,None,L_square.bmp,None,0.4,0.6,,,,,,,,,,,1,0,39,39,39,1,,,,,,,,,,,,,,,,,,,,,,,,,,,,,,,,,
,example3,1,2025-01-01_00h00.00.000,PGNGS_shapes_600ms_v11r1,2022.2.5,Win32,59.52380952,,,,,,L_parallelogram.bmp,None,L_HalfOval.bmp,None,Stop.bmp,None,L_parallelogram.bmp,None,L_HalfOval.bmp,None,L_HalfOval.bmp,None,0.3,0.6,,,,,,,,,,,1,0,40,40,40,1,,,,,,,,,,,,,,,,,,,,,,,,,,,,,,,,,
,example3,1,2025-01-01_00h00.00.000,PGNGS_shapes_600ms_v11r1,2022.2.5,Win32,59.52380952,,,,,,L_circle.bmp,n,L_parallelogram.bmp,None,L_square.bmp,None,L_HalfOval.bmp,None,L_square.bmp,None,L_parallelogram.bmp,None,0.6,0.6,,,,,,,,,,,1,0,41,41,41,1,,,,,,,,,,,,,,,,,,,,,,,,,,,,,,,,,
,example3,1,2025-01-01_00h00.00.000,PGNGS_shapes_600ms_v11r1,2022.2.5,Win32,59.52380952,,,,,,L_pentagon.bmp,None,L_pentagon.bmp,None,L_HalfOval.bmp,None,L_square.bmp,None,L_pentagon.bmp,None,L_pentagon.bmp,None,0.6,0.6,,,,,,,,,,,1,0,42,42,42,1,,,,,,,,,,,,,,,,,,,,,,,,,,,,,,,,,
,example3,1,2025-01-01_00h00.00.000,PGNGS_shapes_600ms_v11r1,2022.2.5,Win32,59.52380952,,,,,,L_square.bmp,None,L_square.bmp,None,L_pentagon.bmp,None,L_pentagon.bmp,None,L_HalfOval.bmp,None,L_circle.bmp,n,0.6,0.6,,,,,,,,,,,1,0,43,43,43,1,,,,,,,,,,,,,,,,,,,,,,,,,,,,,,,,,
,example3,1,2025-01-01_00h00.00.000,PGNGS_shapes_600ms_v11r1,2022.2.5,Win32,59.52380952,,,,,,L_HalfOval.bmp,None,L_HalfOval.bmp,None,L_parallelogram.bmp,None,L_square.bmp,None,L_parallelogram.bmp,None,L_square.bmp,None,0.6,0.6,,,,,,,,,,,1,0,44,44,44,1,,,,,,,,,,,,,,,,,,,,,,,,,,,,,,,,,
,example3,1,2025-01-01_00h00.00.000,PGNGS_shapes_600ms_v11r1,2022.2.5,Win32,59.52380952,,,,,,L_circle.bmp,n,L_parallelogram.bmp,None,L_square.bmp,None,L_diamond.bmp,n,L_HalfOval.bmp,None,L_HalfOval.bmp,None,0.6,0.6,,,,,,,,,,,1,0,45,45,45,1,,,,,,,,,,,,,,,,,,,,,,,,,,,,,,,,,
,example3,1,2025-01-01_00h00.00.000,PGNGS_shapes_600ms_v11r1,2022.2.5,Win32,59.52380952,,,,,,L_square.bmp,None,L_pentagon.bmp,None,L_pentagon.bmp,None,L_square.bmp,None,L_pentagon.bmp,None,L_parallelogram.bmp,None,0.6,0.6,,,,,,,,,,,1,0,46,46,46,1,,,,,,,,,,,,,,,,,,,,,,,,,,,,,,,,,
,example3,1,2025-01-01_00h00.00.000,PGNGS_shapes_600ms_v11r1,2022.2.5,Win32,59.52380952,,,,,,L_HalfOval.bmp,None,L_HalfOval.bmp,None,L_parallelogram.bmp,None,L_HalfOval.bmp,None,L_square.bmp,None,L_pentagon.bmp,None,0.6,0.6,,,,,,,,,,,1,0,47,47,47,1,,,,,,,,,,,,,,,,,,,,,,,,,,,,,,,,,
,example3,1,2025-01-01_00h00.00.000,PGNGS_shapes_600ms_v11r1,2022.2.5,Win32,59.52380952,,,,,,L_parallelogram.bmp,None,L_parallelogram.bmp,None,L_diamond.bmp,n,L_pentagon.bmp,None,L_HalfOval.bmp,None,L_parallelogram.bmp,None,0.6,0.6,,,,,,,,,,,1,0,48,48,48,1,,,,,,,,,,,,,,,,,,,,,,,,,,,,,,,,,
,example3,1,2025-01-01_00h00.00.000,PGNGS_shapes_600ms_v11r1,2022.2.5,Win32,59.52380952,,,,,,L_square.bmp,None,L_pentagon.bmp,None,L_HalfOval.bmp,None,L_square.bmp,None,L_square.bmp,None,L_square.bmp,None,0.6,0.6,,,,,,,,,,,1,0,49,49,49,1,,,,,,,,,,,,,,,,,,,,,,,,,,,,,,,,,
,example3,1,2025-01-01_00h00.00.000,PGNGS_shapes_600ms_v11r1,2022.2.5,Win32,59.52380952,,,,,,L_pentagon.bmp,None,L_square.bmp,None,L_square.bmp,None,L_HalfOval.bmp,None,L_parallelogram.bmp,None,L_triangle.bmp,n,0.6,0.6,,,,,,,,,,,1,0,50,50,50,1,,,,,,,,,,,,,,,,,,,,,,,,,,,,,,,,,
,example3,1,2025-01-01_00h00.00.000,PGNGS_shapes_600ms_v11r1,2022.2.5,Win32,59.52380952,,,,,,L_HalfOval.bmp,None,L_parallelogram.bmp,None,L_parallelogram.bmp,None,L_triangle.bmp,n,L_circle.bmp,n,L_square.bmp,None,0.6,0.6,,,,,,,,,,,1,0,51,51,51,1,,,,,,,,,,,,,,,,,,,,,,,,,,,,,,,,,
,example3,1,2025-01-01_00h00.00.000,PGNGS_shapes_600ms_v11r1,2022.2.5,Win32,59.52380952,,,,,,L_parallelogram.bmp,None,L_HalfOval.bmp,None,L_square.bmp,None,L_pentagon.bmp,None,L_pentagon.bmp,None,L_parallelogram.bmp,None,0.6,0.6,,,,,,,,,,,1,0,52,52,52,1,,,,,,,,,,,,,,,,,,,,,,,,,,,,,,,,,
,example3,1,2025-01-01_00h00.00.000,PGNGS_shapes_600ms_v11r1,2022.2.5,Win32,59.52380952,,,,,,L_pentagon.bmp,None,L_square.bmp,None,L_pentagon.bmp,None,L_square.bmp,None,L_square.bmp,None,L_HalfOval.bmp,None,0.6,0.6,,,,,,,,,,,1,0,53,53,53,1,,,,,,,,,,,,,,,,,,,,,,,,,,,,,,,,,
,example3,1,2025-01-01_00h00.00.000,PGNGS_shapes_600ms_v11r1,2022.2.5,Win32,59.52380952,,,,,,L_HalfOval.bmp,None,L_circle.bmp,n,L_HalfOval.bmp,None,L_parallelogram.bmp,None,L_parallelogram.bmp,None,L_square.bmp,None,0.6,0.6,,,,,,,,,,n,1,0,54,54,54,1,0.5348,,,,,,,,,,,,,,,,,,,,,,,,,,,,,,,,
,example3,1,2025-01-01_00h00.00.000,PGNGS_shapes_600ms_v11r1,2022.2.5,Win32,59.52380952,,,,,,L_diamond.bmp,n,L_parallelogram.bmp,None,L_parallelogram.bmp,None,L_triangle.bmp,n,L_triangle.bmp,n,L_pentagon.bmp,None,0.6,0.6,,,,,,,,,,,1,0,55,55,55,1,,,,,,,,,,,,,,,,,,,,,,,,,,,,,,,,,
,example3,1,2025-01-01_00h00.00.000,PGNGS_shapes_600ms_v11r1,2022.2.5,Win32,59.52380952,,,,,,L_parallelogram.bmp,None,L_square.bmp,None,L_square.bmp,None,L_HalfOval.bmp,None,L_pentagon.bmp,None,L_HalfOval.bmp,None,0.6,0.6,,,,,,,,,,,1,0,56,56,56,1,,,,,,,,,,,,,,,,,,,,,,,,,,,,,,,,,
,example3,1,2025-01-01_00h00.00.000,PGNGS_shapes_600ms_v11r1,2022.2.5,Win32,59.52380952,,,,,,L_HalfOval.bmp,None,L_HalfOval.bmp,None,L_pentagon.bmp,None,L_parallelogram.bmp,None,L_HalfOval.bmp,None,L_parallelogram.bmp,None,0.6,0.6,,,,,,,,,,,1,0,57,57,57,1,,,,,,,,,,,,,,,,,,,,,,,,,,,,,,,,,
,example3,1,2025-01-01_00h00.00.000,PGNGS_shapes_600ms_v11r1,2022.2.5,Win32,59.52380952,,,,,,L_circle.bmp,n,L_diamond.bmp,n,L_HalfOval.bmp,None,L_pentagon.bmp,None,L_diamond.bmp,n,L_square.bmp,None,0.6,0.6,,,,,,,,,,n,1,0,58,58,58,1,0.5353,,,,,,,,,,,,,,,,,,,,,,,,,,,,,,,,
,example3,1,2025-01-01_00h00.00.000,PGNGS_shapes_600ms_v11r1,2022.2.5,Win32,59.52380952,,,,,,L_parallelogram.bmp,None,L_square.bmp,None,L_parallelogram.bmp,None,L_HalfOval.bmp,None,L_pentagon.bmp,None,L_pentagon.bmp,None,0.6,0.6,,,,,,,,,,,1,0,59,59,59,1,,,,,,,,,,,,,,,,,,,,,,,,,,,,,,,,,
,example3,1,2025-01-01_00h00.00.000,PGNGS_shapes_600ms_v11r1,2022.2.5,Win32,59.52380952,,,,,,L_square.bmp,None,L_parallelogram.bmp,None,L_pentagon.bmp,None,L_diamond.bmp,n,L_square.bmp,None,L_HalfOval.bmp,None,0.6,0.6,,,,,,,,,,,1,0,60,60,60,1,,,,,,,,,,,,,,,,,,,,,,,,,,,,,,,,,
,example3,1,2025-01-01_00h00.00.000,PGNGS_shapes_600ms_v11r1,2022.2.5,Win32,59.52380952,,,,,,L_HalfOval.bmp,None,L_HalfOval.bmp,None,L_circle.bmp,None,L_pentagon.bmp,None,L_pentagon.bmp,None,L_parallelogram.bmp,None,0.3,0.6,,,,,,,,,,,1,0,61,61,61,1,,,,,,,,,,,,,,,,,,,,,,,,,,,,,,,,,
,example3,1,2025-01-01_00h00.00.000,PGNGS_shapes_600ms_v11r1,2022.2.5,Win32,59.52380952,,,,,,L_square.bmp,None,L_pentagon.bmp,None,Stop.bmp,None,L_parallelogram.bmp,None,L_parallelogram.bmp,None,L_pentagon.bmp,None,0.4,0.6,,,,,,,,,,,1,0,62,62,62,1,,,,,,,,,,,,,,,,,,,,,,,,,,,,,,,,,
,example3,1,2025-01-01_00h00.00.000,PGNGS_shapes_600ms_v11r1,2022.2.5,Win32,59.52380952,,,,,,L_pentagon.bmp,None,L_parallelogram.bmp,None,L_square.bmp,None,L_HalfOval.bmp,None,L_HalfOval.bmp,None,L_diamond.bmp,None,0.6,0.4,,,,,,,,,,,1,0,63,63,63,1,,,,,,,,,,,,,,,,,,,,,,,,,,,,,,,,,
,example3,1,2025-01-01_00h00.00.000,PGNGS_shapes_600ms_v11r1,2022.2.5,Win32,59.52380952,,,,,,L_circle.bmp,n,L_HalfOval.bmp,None,L_HalfOval.bmp,None,L_square.bmp,None,L_square.bmp,None,Stop.bmp,None,0.6,0.3,,,,,,,,,,,1,0,64,64,64,1,,,,,,,,,,,,,,,,,,,,,,,,,,,,,,,,,
,example3,1,2025-01-01_00h00.00.000,PGNGS_shapes_600ms_v11r1,2022.2.5,Win32,59.52380952,,,,,,L_parallelogram.bmp,None,L_square.bmp,None,L_pentagon.bmp,None,L_pentagon.bmp,None,L_pentagon.bmp,None,L_HalfOval.bmp,None,0.6,0.6,,,,,,,,,,,1,0,65,65,65,1,,,,,,,,,,,,,,,,,,,,,,,,,,,,,,,,,
,example3,1,2025-01-01_00h00.00.000,PGNGS_shapes_600ms_v11r1,2022.2.5,Win32,59.52380952,,,,,,L_square.bmp,None,L_pentagon.bmp,None,L_HalfOval.bmp,None,L_diamond.bmp,n,L_square.bmp,None,L_parallelogram.bmp,None,0.6,0.6,,,,,,,,,,,1,0,66,66,66,1,,,,,,,,,,,,,,,,,,,,,,,,,,,,,,,,,
,example3,1,2025-01-01_00h00.00.000,PGNGS_shapes_600ms_v11r1,2022.2.5,Win32,59.52380952,,,,,,L_circle.bmp,n,L_parallelogram.bmp,None,L_parallelogram.bmp,None,L_HalfOval.bmp,None,L_HalfOval.bmp,None,L_square.bmp,None,0.6,0.6,,,,,,,,,,,1,0,67,67,67,1,,,,,,,,,,,,,,,,,,,,,,,,,,,,,,,,,
,example3,1,2025-01-01_00h00.00.000,PGNGS_shapes_600ms_v11r1,2022.2.5,Win32,59.52380952,,,,,,L_square.bmp,None,L_square.bmp,None,L_square.bmp,None,L_square.bmp,None,L_pentagon.bmp,None,L_circle.bmp,n,0.6,0.6,,,,,,,,,,,1,0,68,68,68,1,,,,,,,,,,,,,,,,,,,,,,,,,,,,,,,,,
,example3,1,2025-01-01_00h00.00.000,PGNGS_shapes_600ms_v11r1,2022.2.5,Win32,59.52380952,,,,,,L_parallelogram.bmp,None,L_pentagon.bmp,None,L_pentagon.bmp,None,L_pentagon.bmp,None,L_square.bmp,None,L_square.bmp,None,0.6,0.6,,,,,,,,,,,1,0,69,69,69,1,,,,,,,,,,,,,,,,,,,,,,,,,,,,,,,,,
,example3,1,2025-01-01_00h00.00.000,PGNGS_shapes_600ms_v11r1,2022.2.5,Win32,59.52380952,,,,,,L_pentagon.bmp,None,L_diamond.bmp,None,L_parallelogram.bmp,None,L_diamond.bmp,n,L_diamond.bmp,None,L_HalfOval.bmp,None,0.6,0.6,,,,,,,,,,,1,0,70,70,70,1,,,,,,,,,,,,,,,,,,,,,,,,,,,,,,,,,
,example3,1,2025-01-01_00h00.00.000,PGNGS_shapes_600ms_v11r1,2022.2.5,Win32,59.52380952,,,,,,L_HalfOval.bmp,None,L_pentagon.bmp,None,L_square.bmp,None,L_pentagon.bmp,None,L_pentagon.bmp,None,L_pentagon.bmp,None,0.6,0.6,,,,,,,,,,,1,0,71,71,71,1,,,,,,,,,,,,,,,,,,,,,,,,,,,,,,,,,
,example3,1,2025-01-01_00h00.00.000,PGNGS_shapes_600ms_v11r1,2022.2.5,Win32,59.52380952,,,,,,L_diamond.bmp,n,L_pentagon.bmp,None,L_diamond.bmp,n,L_HalfOval.bmp,None,L_parallelogram.bmp,None,L_square.bmp,None,0.6,0.6,,,,,,,,,,,1,0,72,72,72,1,,,,,,,,,,,,,,,,,,,,,,,,,,,,,,,,,
,example3,1,2025-01-01_00h00.00.000,PGNGS_shapes_600ms_v11r1,2022.2.5,Win32,59.52380952,,,,,,L_HalfOval.bmp,None,L_HalfOval.bmp,None,L_square.bmp,None,L_diamond.bmp,n,L_HalfOval.bmp,None,L_HalfOval.bmp,None,0.6,0.6,,,,,,,,,,,1,0,73,73,73,1,,,,,,,,,,,,,,,,,,,,,,,,,,,,,,,,,
,example3,1,2025-01-01_00h00.00.000,PGNGS_shapes_600ms_v11r1,2022.2.5,Win32,59.52380952,,,,,,L_pentagon.bmp,None,L_square.bmp,None,L_HalfOval.bmp,None,L_square.bmp,None,L_square.bmp,None,L_parallelogram.bmp,None,0.6,0.6,,,,,,,,,,,1,0,74,74,74,1,,,,,,,,,,,,,,,,,,,,,,,,,,,,,,,,,
,example3,1,2025-01-01_00h00.00.000,PGNGS_shapes_600ms_v11r1,2022.2.5,Win32,59.52380952,,,,,,L_square.bmp,None,L_parallelogram.bmp,None,L_circle.bmp,n,L_pentagon.bmp,None,L_HalfOval.bmp,None,L_square.bmp,None,0.6,0.6,,,,,,,,,,,1,0,75,75,75,1,,,,,,,,,,,,,,,,,,,,,,,,,,,,,,,,,
,example3,1,2025-01-01_00h00.00.000,PGNGS_shapes_600ms_v11r1,2022.2.5,Win32,59.52380952,,,,,,L_parallelogram.bmp,None,L_pentagon.bmp,None,L_pentagon.bmp,None,L_parallelogram.bmp,None,L_pentagon.bmp,None,L_pentagon.bmp,None,0.6,0.6,,,,,,,,,,,1,0,76,76,76,1,,,,,,,,,,,,,,,,,,,,,,,,,,,,,,,,,
,example3,1,2025-01-01_00h00.00.000,PGNGS_shapes_600ms_v11r1,2022.2.5,Win32,59.52380952,,,,,,L_square.bmp,None,L_HalfOval.bmp,None,L_square.bmp,None,L_HalfOval.bmp,None,L_circle.bmp,n,L_square.bmp,None,0.6,0.6,,,,,,,,,,,1,0,77,77,77,1,,,,,,,,,,,,,,,,,,,,,,,,,,,,,,,,,
,example3,1,2025-01-01_00h00.00.000,PGNGS_shapes_600ms_v11r1,2022.2.5,Win32,59.52380952,,,,,,L_circle.bmp,n,L_parallelogram.bmp,None,L_parallelogram.bmp,None,L_circle.bmp,n,L_pentagon.bmp,None,L_triangle.bmp,n,0.6,0.6,,,,,,,,,,,1,0,78,78,78,1,,,,,,,,,,,,,,,,,,,,,,,,,,,,,,,,,
,example3,1,2025-01-01_00h00.00.000,PGNGS_shapes_600ms_v11r1,2022.2.5,Win32,59.52380952,,,,,,L_pentagon.bmp,None,L_square.bmp,None,L_diamond.bmp,n,L_square.bmp,None,L_square.bmp,None,L_parallelogram.bmp,None,0.6,0.6,,,,,,,,,,,1,0,79,79,79,1,,,,,,,,,,,,,,,,,,,,,,,,,,,,,,,,,
,example3,1,2025-01-01_00h00.00.000,PGNGS_shapes_600ms_v11r1,2022.2.5,Win32,59.52380952,,,,,,L_parallelogram.bmp,None,L_pentagon.bmp,None,L_HalfOval.bmp,None,L_pentagon.bmp,None,L_parallelogram.bmp,None,L_square.bmp,None,0.6,0.6,,,,,,,,,,,1,0,80,80,80,1,,,,,,,,,,,,,,,,,,,,,,,,,,,,,,,,,
,example3,1,2025-01-01_00h00.00.000,PGNGS_shapes_600ms_v11r1,2022.2.5,Win32,59.52380952,,,,,,L_HalfOval.bmp,None,L_circle.bmp,n,L_pentagon.bmp,None,L_HalfOval.bmp,None,L_circle.bmp,None,L_circle.bmp,n,0.6,0.6,,,,,,,,,,,0,0,81,81,81,1,,,,,,,,,,,,,,,,,,,,,,,,,,,,,,,,,
,example3,1,2025-01-01_00h00.00.000,PGNGS_shapes_600ms_v11r1,2022.2.5,Win32,59.52380952,,,,,,L_square.bmp,None,L_HalfOval.bmp,None,L_square.bmp,None,L_parallelogram.bmp,None,L_square.bmp,None,L_pentagon.bmp,None,0.6,0.6,,,,,,,,,,n,0,0,82,82,82,1,0.0004,,,,,,,,,,,,,,,,,,,,,,,,,,,,,,,,
,example3,1,2025-01-01_00h00.00.000,PGNGS_shapes_600ms_v11r1,2022.2.5,Win32,59.52380952,,,,,,L_parallelogram.bmp,None,L_square.bmp,None,L_HalfOval.bmp,None,L_HalfOval.bmp,None,L_parallelogram.bmp,None,L_HalfOval.bmp,None,0.6,0.6,,,,,,,,,,,1,0,83,83,83,1,,,,,,,,,,,,,,,,,,,,,,,,,,,,,,,,,
,example3,1,2025-01-01_00h00.00.000,PGNGS_shapes_600ms_v11r1,2022.2.5,Win32,59.52380952,,,,,,L_circle.bmp,n,L_diamond.bmp,n,L_circle.bmp,None,L_square.bmp,None,L_pentagon.bmp,None,L_square.bmp,None,0.4,0.6,,,,,,,,,,,0,0,84,84,84,1,,,,,,,,,,,,,,,,,,,,,,,,,,,,,,,,,
,example3,1,2025-01-01_00h00.00.000,PGNGS_shapes_600ms_v11r1,2022.2.5,Win32,59.52380952,,,,,,L_pentagon.bmp,None,L_square.bmp,None,Stop.bmp,None,L_HalfOval.bmp,None,L_triangle.bmp,n,L_HalfOval.bmp,None,0.3,0.6,,,,,,,,,,,1,0,85,85,85,1,,,,,,,,,,,,,,,,,,,,,,,,,,,,,,,,,
,example3,1,2025-01-01_00h00.00.000,PGNGS_shapes_600ms_v11r1,2022.2.5,Win32,59.52380952,,,,,,L_parallelogram.bmp,None,L_HalfOval.bmp,None,L_pentagon.bmp,None,L_parallelogram.bmp,None,L_pentagon.bmp,None,L_parallelogram.bmp,None,0.6,0.6,,,,,,,,,,,1,0,86,86,86,1,,,,,,,,,,,,,,,,,,,,,,,,,,,,,,,,,
,example3,1,2025-01-01_00h00.00.000,PGNGS_shapes_600ms_v11r1,2022.2.5,Win32,59.52380952,,,,,,L_diamond.bmp,n,L_pentagon.bmp,None,L_parallelogram.bmp,None,L_pentagon.bmp,None,L_HalfOval.bmp,None,L_triangle.bmp,None,0.6,0.3,,,,,,,,,,,1,0,87,87,87,1,,,,,,,,,,,,,,,,,,,,,,,,,,,,,,,,,
,example3,1,2025-01-01_00h00.00.000,PGNGS_shapes_600ms_v11r1,2022.2.5,Win32,59.52380952,,,,,,L_parallelogram.bmp,None,L_circle.bmp,n,L_HalfOval.bmp,None,L_square.bmp,None,L_square.bmp,None,Stop.bmp,None,0.6,0.4,,,,,,,,,,,0,0,88,88,88,1,,,,,,,,,,,,,,,,,,,,,,,,,,,,,,,,,
,example3,1,2025-01-01_00h00.00.000,PGNGS_shapes_600ms_v11r1,2022.2.5,Win32,59.52380952,,,,,,L_HalfOval.bmp,None,L_square.bmp,None,L_diamond.bmp,n,L_diamond.bmp,n,L_circle.bmp,n,L_pentagon.bmp,None,0.6,0.6,,,,,,,,,,,1,0,89,89,89,1,,,,,,,,,,,,,,,,,,,,,,,,,,,,,,,,,
,example3,1,2025-01-01_00h00.00.000,PGNGS_shapes_600ms_v11r1,2022.2.5,Win32,59.52380952,,,,,,L_pentagon.bmp,None,L_pentagon.bmp,None,L_square.bmp,None,L_HalfOval.bmp,None,L_parallelogram.bmp,None,L_HalfOval.bmp,None,0.6,0.6,,,,,,,,,,,1,0,90,90,90,1,,,,,,,,,,,,,,,,,,,,,,,,,,,,,,,,,
,example3,1,2025-01-01_00h00.00.000,PGNGS_shapes_600ms_v11r1,2022.2.5,Win32,59.52380952,,,,,,L_parallelogram.bmp,None,L_HalfOval.bmp,None,L_pentagon.bmp,None,L_square.bmp,None,L_HalfOval.bmp,None,L_diamond.bmp,n,0.6,0.6,,,,,,,,,,,1,0,91,91,91,1,,,,,,,,,,,,,,,,,,,,,,,,,,,,,,,,,
,example3,1,2025-01-01_00h00.00.000,PGNGS_shapes_600ms_v11r1,2022.2.5,Win32,59.52380952,,,,,,L_pentagon.bmp,None,L_circle.bmp,None,L_circle.bmp,n,L_pentagon.bmp,None,L_square.bmp,None,L_pentagon.bmp,None,0.6,0.6,,,,,,,,,,,1,0,92,92,92,1,,,,,,,,,,,,,,,,,,,,,,,,,,,,,,,,,
,example3,1,2025-01-01_00h00.00.000,PGNGS_shapes_600ms_v11r1,2022.2.5,Win32,59.52380952,,,,,,L_circle.bmp,n,L_pentagon.bmp,None,L_parallelogram.bmp,None,L_triangle.bmp,n,L_pentagon.bmp,None,L_parallelogram.bmp,None,0.6,0.6,,,,,,,,,,,1,0,93,93,93,1,,,,,,,,,,,,,,,,,,,,,,,,,,,,,,,,,
,example3,1,2025-01-01_00h00.00.000,PGNGS_shapes_600ms_v11r1,2022.2.5,Win32,59.52380952,,,,,,L_pentagon.bmp,None,L_square.bmp,None,L_square.bmp,None,L_square.bmp,None,L_circle.bmp,None,L_square.bmp,None,0.6,0.6,,,,,,,,,,,1,0,94,94,94,1,,,,,,,,,,,,,,,,,,,,,,,,,,,,,,,,,
,example3,1,2025-01-01_00h00.00.000,PGNGS_shapes_600ms_v11r1,2022.2.5,Win32,59.52380952,,,,,,L_square.bmp,None,L_HalfOval.bmp,None,L_HalfOval.bmp,None,L_parallelogram.bmp,None,L_parallelogram.bmp,None,L_pentagon.bmp,None,0.6,0.6,,,,,,,,,,,1,0,95,95,95,1,,,,,,,,,,,,,,,,,,,,,,,,,,,,,,,,,
,example3,1,2025-01-01_00h00.00.000,PGNGS_shapes_600ms_v11r1,2022.2.5,Win32,59.52380952,,,,,,L_parallelogram.bmp,None,L_pentagon.bmp,None,L_diamond.bmp,n,L_HalfOval.bmp,None,L_HalfOval.bmp,None,L_parallelogram.bmp,None,0.6,0.6,,,,,,,,,,,1,0,96,96,96,1,,,,,,,,,,,,,,,,,,,,,,,,,,,,,,,,,
,example3,1,2025-01-01_00h00.00.000,PGNGS_shapes_600ms_v11r1,2022.2.5,Win32,59.52380952,,,,,,L_HalfOval.bmp,None,L_diamond.bmp,n,L_pentagon.bmp,None,L_pentagon.bmp,None,L_triangle.bmp,n,L_triangle.bmp,n,0.6,0.6,,,,,,,,,,n,1,0,97,97,97,1,0.5413,,,,,,,,,,,,,,,,,,,,,,,,,,,,,,,,
,example3,1,2025-01-01_00h00.00.000,PGNGS_shapes_600ms_v11r1,2022.2.5,Win32,59.52380952,,,,,,L_pentagon.bmp,None,L_pentagon.bmp,None,L_parallelogram.bmp,None,L_parallelogram.bmp,None,L_square.bmp,None,L_pentagon.bmp,None,0.6,0.6,,,,,,,,,,,1,0,98,98,98,1,,,,,,,,,,,,,,,,,,,,,,,,,,,,,,,,,
,example3,1,2025-01-01_00h00.00.000,PGNGS_shapes_600ms_v11r1,2022.2.5,Win32,59.52380952,,,,,,L_square.bmp,None,L_parallelogram.bmp,None,L_circle.bmp,n,L_square.bmp,None,L_parallelogram.bmp,None,L_HalfOval.bmp,None,0.6,0.6,,,,,,,,,,,1,0,99,99,99,1,,,,,,,,,,,,,,,,,,,,,,,,,,,,,,,,,
,example3,1,2025-01-01_00h00.00.000,PGNGS_shapes_600ms_v11r1,2022.2.5,Win32,59.52380952,,,,,,L_HalfOval.bmp,None,L_circle.bmp,n,L_HalfOval.bmp,None,L_pentagon.bmp,None,L_diamond.bmp,n,L_parallelogram.bmp,None,0.6,0.6,,,,,,,,,,n,1,0,100,100,100,1,0.5349,,,,,,,,,,,,,,,,,,,,,,,,,,,,,,,,
,example3,1,2025-01-01_00h00.00.000,PGNGS_shapes_600ms_v11r1,2022.2.5,Win32,59.52380952,,,,,,L_parallelogram.bmp,None,L_pentagon.bmp,None,L_square.bmp,None,L_parallelogram.bmp,None,L_HalfOval.bmp,None,L_HalfOval.bmp,None,0.6,0.6,,,,,,,,,,,1,0,101,101,101,1,,,,,,,,,,,,,,,,,,,,,,,,,,,,,,,,,
,example3,1,2025-01-01_00h00.00.000,PGNGS_shapes_600ms_v11r1,2022.2.5,Win32,59.52380952,,,,,,L_square.bmp,None,L_HalfOval.bmp,None,L_pentagon.bmp,None,L_square.bmp,None,L_pentagon.bmp,None,L_square.bmp,None,0.6,0.6,,,,,,,,,,,1,0,102,102,102,1,,,,,,,,,,,,,,,,,,,,,,,,,,,,,,,,,
,example3,1,2025-01-01_00h00.00.000,PGNGS_shapes_600ms_v11r1,2022.2.5,Win32,59.52380952,,,,,,L_pentagon.bmp,None,L_square.bmp,None,L_diamond.bmp,n,L_HalfOval.bmp,None,L_parallelogram.bmp,None,L_HalfOval.bmp,None,0.6,0.6,,,,,,,,,,,1,0,103,103,103,1,,,,,,,,,,,,,,,,,,,,,,,,,,,,,,,,,
,example3,1,2025-01-01_00h00.00.000,PGNGS_shapes_600ms_v11r1,2022.2.5,Win32,59.52380952,,,,,,L_HalfOval.bmp,None,L_diamond.bmp,n,L_parallelogram.bmp,None,L_pentagon.bmp,None,L_triangle.bmp,n,L_parallelogram.bmp,None,0.6,0.6,,,,,,,,,,n,1,0,104,104,104,1,0.4519,,,,,,,,,,,,,,,,,,,,,,,,,,,,,,,,
,example3,1,2025-01-01_00h00.00.000,PGNGS_shapes_600ms_v11r1,2022.2.5,Win32,59.52380952,,,,,,L_diamond.bmp,n,L_parallelogram.bmp,None,L_HalfOval.bmp,None,L_parallelogram.bmp,None,L_square.bmp,None,L_pentagon.bmp,None,0.6,0.6,,,,,,,,,,,1,0,105,105,105,1,,,,,,,,,,,,,,,,,,,,,,,,,,,,,,,,,
,example3,1,2025-01-01_00h00.00.000,PGNGS_shapes_600ms_v11r1,2022.2.5,Win32,59.52380952,,,,,,L_pentagon.bmp,None,L_pentagon.bmp,None,L_parallelogram.bmp,None,L_square.bmp,None,L_HalfOval.bmp,None,L_HalfOval.bmp,None,0.6,0.6,,,,,,,,,,,1,0,106,106,106,1,,,,,,,,,,,,,,,,,,,,,,,,,,,,,,,,,
,example3,1,2025-01-01_00h00.00.000,PGNGS_shapes_600ms_v11r1,2022.2.5,Win32,59.52380952,,,,,,L_parallelogram.bmp,None,L_HalfOval.bmp,None,L_pentagon.bmp,None,L_pentagon.bmp,None,L_parallelogram.bmp,None,L_parallelogram.bmp,None,0.6,0.6,,,,,,,,,,,1,0,107,107,107,1,,,,,,,,,,,,,,,,,,,,,,,,,,,,,,,,,
,example3,1,2025-01-01_00h00.00.000,PGNGS_shapes_600ms_v11r1,2022.2.5,Win32,59.52380952,,,,,,L_square.bmp,None,L_circle.bmp,n,L_circle.bmp,None,L_circle.bmp,n,L_triangle.bmp,None,L_HalfOval.bmp,None,0.3,0.6,,,,,,,,,,n,1,0,108,108,108,1,0.4781,,,,,,,,,,,,,,,,,,,,,,,,,,,,,,,,
,example3,1,2025-01-01_00h00.00.000,PGNGS_shapes_600ms_v11r1,2022.2.5,Win32,59.52380952,,,,,,L_HalfOval.bmp,None,L_pentagon.bmp,None,Stop.bmp,None,L_pentagon.bmp,None,L_parallelogram.bmp,None,L_diamond.bmp,n,0.4,0.6,,,,,,,,,,,1,0,109,109,109,1,,,,,,,,,,,,,,,,,,,,,,,,,,,,,,,,,
,example3,1,2025-01-01_00h00.00.000,PGNGS_shapes_600ms_v11r1,2022.2.5,Win32,59.52380952,,,,,,L_parallelogram.bmp,None,L_parallelogram.bmp,None,L_pentagon.bmp,None,L_HalfOval.bmp,None,L_HalfOval.bmp,None,L_parallelogram.bmp,None,0.6,0.6,,,,,,,,,,,1,0,110,110,110,1,,,,,,,,,,,,,,,,,,,,,,,,,,,,,,,,,
,example3,1,2025-01-01_00h00.00.000,PGNGS_shapes_600ms_v11r1,2022.2.5,Win32,59.52380952,,,,,,L_pentagon.bmp,None,L_HalfOval.bmp,None,L_HalfOval.bmp,None,L_parallelogram.bmp,None,L_parallelogram.bmp,None,L_pentagon.bmp,None,0.6,0.6,,,,,,,,,,,1,0,111,111,111,1,,,,,,,,,,,,,,,,,,,,,,,,,,,,,,,,,
,example3,1,2025-01-01_00h00.00.000,PGNGS_shapes_600ms_v11r1,2022.2.5,Win32,59.52380952,,,,,,L_square.bmp,None,L_diamond.bmp,n,L_parallelogram.bmp,None,L_square.bmp,None,L_square.bmp,None,L_circle.bmp,n,0.6,0.6,,,,,,,,,,n,1,0,112,112,112,1,0.4924,,,,,,,,,,,,,,,,,,,,,,,,,,,,,,,,
,example3,1,2025-01-01_00h00.00.000,PGNGS_shapes_600ms_v11r1,2022.2.5,Win32,59.52380952,,,,,,L_HalfOval.bmp,None,L_square.bmp,None,L_pentagon.bmp,None,L_circle.bmp,n,L_pentagon.bmp,None,L_pentagon.bmp,None,0.6,0.6,,,,,,,,,,,1,0,113,113,113,1,,,,,,,,,,,,,,,,,,,,,,,,,,,,,,,,,
,example3,1,2025-01-01_00h00.00.000,PGNGS_shapes_600ms_v11r1,2022.2.5,Win32,59.52380952,,,,,,L_pentagon.bmp,None,L_parallelogram.bmp,None,L_diamond.bmp,n,L_pentagon.bmp,None,L_diamond.bmp,n,L_square.bmp,None,0.6,0.6,,,,,,,,,,,1,0,114,114,114,1,,,,,,,,,,,,,,,,,,,,,,,,,,,,,,,,,
,example3,1,2025-01-01_00h00.00.000,PGNGS_shapes_600ms_v11r1,2022.2.5,Win32,59.52380952,,,,,,L_square.bmp,None,L_HalfOval.bmp,None,L_HalfOval.bmp,None,L_square.bmp,None,L_HalfOval.bmp,None,L_HalfOval.bmp,None,0.6,0.6,,,,,,,,,,,1,0,115,115,115,1,,,,,,,,,,,,,,,,,,,,,,,,,,,,,,,,,
,example3,1,2025-01-01_00h00.00.000,PGNGS_shapes_600ms_v11r1,2022.2.5,Win32,59.52380952,,,,,,L_diamond.bmp,n,L_pentagon.bmp,None,L_square.bmp,None,L_parallelogram.bmp,None,L_square.bmp,None,L_pentagon.bmp,None,0.6,0.6,,,,,,,,,,,1,0,116,116,116,1,,,,,,,,,,,,,,,,,,,,,,,,,,,,,,,,,
,example3,1,2025-01-01_00h00.00.000,PGNGS_shapes_600ms_v11r1,2022.2.5,Win32,59.52380952,,,,,,L_HalfOval.bmp,None,L_diamond.bmp,None,L_pentagon.bmp,None,L_diamond.bmp,n,L_parallelogram.bmp,None,L_diamond.bmp,None,0.6,0.25,,,,,,,,,,,1,0,117,117,117,1,,,,,,,,,,,,,,,,,,,,,,,,,,,,,,,,,
,example3,1,2025-01-01_00h00.00.000,PGNGS_shapes_600ms_v11r1,2022.2.5,Win32,59.52380952,,,,,,L_square.bmp,None,L_parallelogram.bmp,None,L_square.bmp,None,L_pentagon.bmp,None,L_HalfOval.bmp,None,Stop.bmp,None,0.6,0.45,,,,,,,,,,,1,0,118,118,118,1,,,,,,,,,,,,,,,,,,,,,,,,,,,,,,,,,
,example3,1,2025-01-01_00h00.00.000,PGNGS_shapes_600ms_v11r1,2022.2.5,Win32,59.52380952,,,,,,L_pentagon.bmp,None,L_pentagon.bmp,None,L_HalfOval.bmp,None,L_parallelogram.bmp,None,L_square.bmp,None,L_HalfOval.bmp,None,0.6,0.6,,,,,,,,,,,1,0,119,119,119,1,,,,,,,,,,,,,,,,,,,,,,,,,,,,,,,,,
,example3,1,2025-01-01_00h00.00.000,PGNGS_shapes_600ms_v11r1,2022.2.5,Win32,59.52380952,,,,,,L_diamond.bmp,n,L_square.bmp,None,L_parallelogram.bmp,None,L_square.bmp,None,L_pentagon.bmp,None,L_square.bmp,None,0.6,0.6,,,,,,,,,,,1,0,120,120,120,1,,,,,,,,,,,,,,,,,,,,,,,,,,,,,,,,,
,example3,1,2025-01-01_00h00.00.000,PGNGS_shapes_600ms_v11r1,2022.2.5,Win32,59.52380952,,,,,,L_parallelogram.bmp,None,L_circle.bmp,n,L_circle.bmp,None,L_parallelogram.bmp,None,L_circle.bmp,n,L_circle.bmp,n,0.25,0.6,,,,,,,,,,,0,0,121,121,121,1,,,,,,,,,,,,,,,,,,,,,,,,,,,,,,,,,
,example3,1,2025-01-01_00h00.00.000,PGNGS_shapes_600ms_v11r1,2022.2.5,Win32,59.52380952,,,,,,L_HalfOval.bmp,None,L_parallelogram.bmp,None,Stop.bmp,None,L_HalfOval.bmp,None,L_square.bmp,None,L_pentagon.bmp,None,0.45,0.6,,,,,,,,,,n,0,0,122,122,122,1,0.0191,,,,,,,,,,,,,,,,,,,,,,,,,,,,,,,,
,example3,1,2025-01-01_00h00.00.000,PGNGS_shapes_600ms_v11r1,2022.2.5,Win32,59.52380952,,,,,,L_circle.bmp,n,L_square.bmp,None,L_parallelogram.bmp,None,L_triangle.bmp,n,L_pentagon.bmp,None,L_square.bmp,None,0.6,0.6,,,,,,,,,,,1,0,123,123,123,1,,,,,,,,,,,,,,,,,,,,,,,,,,,,,,,,,
,example3,1,2025-01-01_00h00.00.000,PGNGS_shapes_600ms_v11r1,2022.2.5,Win32,59.52380952,,,,,,L_pentagon.bmp,None,L_pentagon.bmp,None,L_square.bmp,None,L_parallelogram.bmp,None,L_diamond.bmp,n,L_parallelogram.bmp,None,0.6,0.6,,,,,,,,,,,1,0,124,124,124,1,,,,,,,,,,,,,,,,,,,,,,,,,,,,,,,,,
,example3,1,2025-01-01_00h00.00.000,PGNGS_shapes_600ms_v11r1,2022.2.5,Win32,59.52380952,,,,,,L_parallelogram.bmp,None,L_HalfOval.bmp,None,L_diamond.bmp,n,L_HalfOval.bmp,None,L_parallelogram.bmp,None,L_HalfOval.bmp,None,0.6,0.6,,,,,,,,,,,1,0,125,125,125,1,,,,,,,,,,,,,,,,,,,,,,,,,,,,,,,,,
,example3,1,2025-01-01_00h00.00.000,PGNGS_shapes_600ms_v11r1,2022.2.5,Win32,59.52380952,,,,,,L_square.bmp,None,L_parallelogram.bmp,None,L_HalfOval.bmp,None,L_pentagon.bmp,None,L_HalfOval.bmp,None,L_pentagon.bmp,None,0.6,0.6,,,,,,,,,,,1,0,126,126,126,1,,,,,,,,,,,,,,,,,,,,,,,,,,,,,,,,,
,example3,1,2025-01-01_00h00.00.000,PGNGS_shapes_600ms_v11r1,2022.2.5,Win32,59.52380952,,,,,,L_pentagon.bmp,None,L_square.bmp,None,L_pentagon.bmp,None,L_parallelogram.bmp,None,L_square.bmp,None,L_square.bmp,None,0.6,0.6,,,,,,,,,,,1,0,127,127,127,1,,,,,,,,,,,,,,,,,,,,,,,,,,,,,,,,,
,example3,1,2025-01-01_00h00.00.000,PGNGS_shapes_600ms_v11r1,2022.2.5,Win32,59.52380952,,,,,,L_square.bmp,None,L_circle.bmp,None,L_square.bmp,None,L_HalfOval.bmp,None,L_diamond.bmp,None,L_HalfOval.bmp,None,0.6,0.6,,,,,,,,,,,1,0,128,128,128,1,,,,,,,,,,,,,,,,,,,,,,,,,,,,,,,,,
,example3,1,2025-01-01_00h00.00.000,PGNGS_shapes_600ms_v11r1,2022.2.5,Win32,59.52380952,,,,,,L_HalfOval.bmp,None,L_parallelogram.bmp,None,L_circle.bmp,n,L_square.bmp,None,L_pentagon.bmp,None,L_parallelogram.bmp,None,0.6,0.6,,,,,,,,,,n,0,0,129,129,129,1,0.116,,,,,,,,,,,,,,,,,,,,,,,,,,,,,,,,
,example3,1,2025-01-01_00h00.00.000,PGNGS_shapes_600ms_v11r1,2022.2.5,Win32,59.52380952,,,,,,L_square.bmp,None,L_square.bmp,None,L_square.bmp,None,L_pentagon.bmp,None,L_parallelogram.bmp,None,L_square.bmp,None,0.6,0.6,,,,,,,,,,,1,0,130,130,130,1,,,,,,,,,,,,,,,,,,,,,,,,,,,,,,,,,
,example3,1,2025-01-01_00h00.00.000,PGNGS_shapes_600ms_v11r1,2022.2.5,Win32,59.52380952,,,,,,L_parallelogram.bmp,None,L_HalfOval.bmp,None,L_HalfOval.bmp,None,L_HalfOval.bmp,None,L_HalfOval.bmp,None,L_triangle.bmp,n,0.6,0.6,,,,,,,,,,,1,0,131,131,131,1,,,,,,,,,,,,,,,,,,,,,,,,,,,,,,,,,
,example3,1,2025-01-01_00h00.00.000,PGNGS_shapes_600ms_v11r1,2022.2.5,Win32,59.52380952,,,,,,L_pentagon.bmp,None,L_diamond.bmp,n,L_diamond.bmp,n,L_square.bmp,None,L_square.bmp,None,L_HalfOval.bmp,None,0.6,0.6,,,,,,,,,,n,1,0,132,132,132,1,0.4999,,,,,,,,,,,,,,,,,,,,,,,,,,,,,,,,
,example3,1,2025-01-01_00h00.00.000,PGNGS_shapes_600ms_v11r1,2022.2.5,Win32,59.52380952,,,,,,L_square.bmp,None,L_HalfOval.bmp,None,L_square.bmp,None,L_parallelogram.bmp,None,L_pentagon.bmp,None,L_pentagon.bmp,None,0.6,0.6,,,,,,,,,,,1,0,133,133,133,1,,,,,,,,,,,,,,,,,,,,,,,,,,,,,,,,,
,example3,1,2025-01-01_00h00.00.000,PGNGS_shapes_600ms_v11r1,2022.2.5,Win32,59.52380952,,,,,,L_HalfOval.bmp,None,L_parallelogram.bmp,None,L_HalfOval.bmp,None,L_HalfOval.bmp,None,L_circle.bmp,n,L_circle.bmp,n,0.6,0.6,,,,,,,,,,,1,0,134,134,134,1,,,,,,,,,,,,,,,,,,,,,,,,,,,,,,,,,
,example3,1,2025-01-01_00h00.00.000,PGNGS_shapes_600ms_v11r1,2022.2.5,Win32,59.52380952,,,,,,L_circle.bmp,n,L_pentagon.bmp,None,L_parallelogram.bmp,None,L_diamond.bmp,n,L_square.bmp,None,L_pentagon.bmp,None,0.6,0.6,,,,,,,,,,,1,0,135,135,135,1,,,,,,,,,,,,,,,,,,,,,,,,,,,,,,,,,
,example3,1,2025-01-01_00h00.00.000,PGNGS_shapes_600ms_v11r1,2022.2.5,Win32,59.52380952,,,,,,L_pentagon.bmp,None,L_circle.bmp,n,L_pentagon.bmp,None,L_square.bmp,None,L_HalfOval.bmp,None,L_parallelogram.bmp,None,0.6,0.6,,,,,,,,,,,0,0,136,136,136,1,,,,,,,,,,,,,,,,,,,,,,,,,,,,,,,,,
,example3,1,2025-01-01_00h00.00.000,PGNGS_shapes_600ms_v11r1,2022.2.5,Win32,59.52380952,,,,,,L_parallelogram.bmp,None,L_parallelogram.bmp,None,L_square.bmp,None,L_parallelogram.bmp,None,L_parallelogram.bmp,None,L_square.bmp,None,0.6,0.6,,,,,,,,,,,1,0,137,137,137,1,,,,,,,,,,,,,,,,,,,,,,,,,,,,,,,,,
,example3,1,2025-01-01_00h00.00.000,PGNGS_shapes_600ms_v11r1,2022.2.5,Win32,59.52380952,,,,,,L_diamond.bmp,n,L_square.bmp,None,L_pentagon.bmp,None,L_diamond.bmp,n,L_pentagon.bmp,None,L_diamond.bmp,None,0.6,0.25,,,,,,,,,,,1,0,138,138,138,1,,,,,,,,,,,,,,,,,,,,,,,,,,,,,,,,,
,example3,1,2025-01-01_00h00.00.000,PGNGS_shapes_600ms_v11r1,2022.2.5,Win32,59.52380952,,,,,,L_square.bmp,None,L_diamond.bmp,n,L_HalfOval.bmp,None,L_parallelogram.bmp,None,L_square.bmp,None,Stop.bmp,None,0.6,0.45,,,,,,,,,,n,1,0,139,139,139,1,0.494,,,,,,,,,,,,,,,,,,,,,,,,,,,,,,,,
,example3,1,2025-01-01_00h00.00.000,PGNGS_shapes_600ms_v11r1,2022.2.5,Win32,59.52380952,,,,,,L_pentagon.bmp,None,L_square.bmp,None,L_square.bmp,None,L_pentagon.bmp,None,L_parallelogram.bmp,None,L_parallelogram.bmp,None,0.6,0.6,,,,,,,,,,,1,0,140,140,140,1,,,,,,,,,,,,,,,,,,,,,,,,,,,,,,,,,
,example3,1,2025-01-01_00h00.00.000,PGNGS_shapes_600ms_v11r1,2022.2.5,Win32,59.52380952,,,,,,L_HalfOval.bmp,None,L_HalfOval.bmp,None,L_pentagon.bmp,None,L_HalfOval.bmp,None,L_triangle.bmp,n,L_pentagon.bmp,None,0.6,0.6,,,,,,,,,,,1,0,141,141,141,1,,,,,,,,,,,,,,,,,,,,,,,,,,,,,,,,,
,example3,1,2025-01-01_00h00.00.000,PGNGS_shapes_600ms_v11r1,2022.2.5,Win32,59.52380952,,,,,,L_circle.bmp,n,L_circle.bmp,n,L_HalfOval.bmp,None,L_triangle.bmp,n,L_HalfOval.bmp,None,L_square.bmp,None,0.6,0.6,,,,,,,,,,n,1,0,142,142,142,1,0.493,,,,,,,,,,,,,,,,,,,,,,,,,,,,,,,,
,example3,1,2025-01-01_00h00.00.000,PGNGS_shapes_600ms_v11r1,2022.2.5,Win32,59.52380952,,,,,,L_square.bmp,None,L_pentagon.bmp,None,L_square.bmp,None,L_HalfOval.bmp,None,L_square.bmp,None,L_parallelogram.bmp,None,0.6,0.6,,,,,,,,,,,1,0,143,143,143,1,,,,,,,,,,,,,,,,,,,,,,,,,,,,,,,,,
,example3,1,2025-01-01_00h00.00.000,PGNGS_shapes_600ms_v11r1,2022.2.5,Win32,59.52380952,,,,,,L_HalfOval.bmp,None,L_square.bmp,None,L_parallelogram.bmp,None,L_parallelogram.bmp,None,L_HalfOval.bmp,None,L_HalfOval.bmp,None,0.6,0.6,,,,,,,,,,,1,0,144,144,144,1,,,,,,,,,,,,,,,,,,,,,,,,,,,,,,,,,
,example3,1,2025-01-01_00h00.00.000,PGNGS_shapes_600ms_v11r1,2022.2.5,Win32,59.52380952,,,,,,L_circle.bmp,n,L_parallelogram.bmp,None,L_square.bmp,None,L_circle.bmp,n,L_parallelogram.bmp,None,L_pentagon.bmp,None,0.6,0.6,,,,,,,,,,,1,0,145,145,145,1,,,,,,,,,,,,,,,,,,,,,,,,,,,,,,,,,
,example3,1,2025-01-01_00h00.00.000,PGNGS_shapes_600ms_v11r1,2022.2.5,Win32,59.52380952,,,,,,L_parallelogram.bmp,None,L_HalfOval.bmp,None,L_pentagon.bmp,None,L_pentagon.bmp,None,L_pentagon.bmp,None,L_parallelogram.bmp,None,0.6,0.6,,,,,,,,,,,1,0,146,146,146,1,,,,,,,,,,,,,,,,,,,,,,,,,,,,,,,,,
,example3,1,2025-01-01_00h00.00.000,PGNGS_shapes_600ms_v11r1,2022.2.5,Win32,59.52380952,,,,,,L_pentagon.bmp,None,L_pentagon.bmp,None,L_HalfOval.bmp,None,L_square.bmp,None,L_HalfOval.bmp,None,L_HalfOval.bmp,None,0.6,0.6,,,,,,,,,,,1,0,147,147,147,1,,,,,,,,,,,,,,,,,,,,,,,,,,,,,,,,,
,example3,1,2025-01-01_00h00.00.000,PGNGS_shapes_600ms_v11r1,2022.2.5,Win32,59.52380952,,,,,,L_square.bmp,None,L_parallelogram.bmp,None,L_square.bmp,None,L_parallelogram.bmp,None,L_square.bmp,None,L_parallelogram.bmp,None,0.6,0.6,,,,,,,,,,,1,0,148,148,148,1,,,,,,,,,,,,,,,,,,,,,,,,,,,,,,,,,
,example3,1,2025-01-01_00h00.00.000,PGNGS_shapes_600ms_v11r1,2022.2.5,Win32,59.52380952,,,,,,L_HalfOval.bmp,None,L_pentagon.bmp,None,L_circle.bmp,None,L_pentagon.bmp,None,L_pentagon.bmp,None,L_HalfOval.bmp,None,0.25,0.6,,,,,,,,,,,1,0,149,149,149,1,,,,,,,,,,,,,,,,,,,,,,,,,,,,,,,,,
,example3,1,2025-01-01_00h00.00.000,PGNGS_shapes_600ms_v11r1,2022.2.5,Win32,59.52380952,,,,,,L_parallelogram.bmp,None,L_diamond.bmp,n,Stop.bmp,None,L_HalfOval.bmp,None,L_parallelogram.bmp,None,L_triangle.bmp,n,0.45,0.6,,,,,,,,,,n,1,0,150,150,150,1,0.5709,,,,,,,,,,,,,,,,,,,,,,,,,,,,,,,,
,example3,1,2025-01-01_00h00.00.000,PGNGS_shapes_600ms_v11r1,2022.2.5,Win32,59.52380952,,,,,,L_square.bmp,None,L_pentagon.bmp,None,L_parallelogram.bmp,None,L_parallelogram.bmp,None,L_HalfOval.bmp,None,L_square.bmp,None,0.6,0.6,,,,,,,,,,,1,0,151,151,151,1,,,,,,,,,,,,,,,,,,,,,,,,,,,,,,,,,
,example3,1,2025-01-01_00h00.00.000,PGNGS_shapes_600ms_v11r1,2022.2.5,Win32,59.52380952,,,,,,L_pentagon.bmp,None,L_HalfOval.bmp,None,L_pentagon.bmp,None,L_square.bmp,None,L_pentagon.bmp,None,L_pentagon.bmp,None,0.6,0.6,,,,,,,,,,,1,0,152,152,152,1,,,,,,,,,,,,,,,,,,,,,,,,,,,,,,,,,
,example3,1,2025-01-01_00h00.00.000,PGNGS_shapes_600ms_v11r1,2022.2.5,Win32,59.52380952,,,,,,L_parallelogram.bmp,None,L_parallelogram.bmp,None,L_diamond.bmp,n,L_pentagon.bmp,None,L_square.bmp,None,L_parallelogram.bmp,None,0.6,0.6,,,,,,,,,,,1,0,153,153,153,1,,,,,,,,,,,,,,,,,,,,,,,,,,,,,,,,,
,example3,1,2025-01-01_00h00.00.000,PGNGS_shapes_600ms_v11r1,2022.2.5,Win32,59.52380952,,,,,,L_circle.bmp,n,L_pentagon.bmp,None,L_parallelogram.bmp,None,L_circle.bmp,n,L_triangle.bmp,None,L_pentagon.bmp,None,0.6,0.6,,,,,,,,,,,1,0,154,154,154,1,,,,,,,,,,,,,,,,,,,,,,,,,,,,,,,,,
,example3,1,2025-01-01_00h00.00.000,PGNGS_shapes_600ms_v11r1,2022.2.5,Win32,59.52380952,,,,,,L_HalfOval.bmp,None,L_HalfOval.bmp,None,L_HalfOval.bmp,None,L_square.bmp,None,L_HalfOval.bmp,None,L_HalfOval.bmp,None,0.6,0.6,,,,,,,,,,,1,0,155,155,155,1,,,,,,,,,,,,,,,,,,,,,,,,,,,,,,,,,
,example3,1,2025-01-01_00h00.00.000,PGNGS_shapes_600ms_v11r1,2022.2.5,Win32,59.52380952,,,,,,L_pentagon.bmp,None,L_square.bmp,None,L_square.bmp,None,L_pentagon.bmp,None,L_parallelogram.bmp,None,L_pentagon.bmp,None,0.6,0.6,,,,,,,,,,,1,0,156,156,156,1,,,,,,,,,,,,,,,,,,,,,,,,,,,,,,,,,
,example3,1,2025-01-01_00h00.00.000,PGNGS_shapes_600ms_v11r1,2022.2.5,Win32,59.52380952,,,,,,L_square.bmp,None,L_pentagon.bmp,None,L_circle.bmp,n,L_HalfOval.bmp,None,L_square.bmp,None,L_square.bmp,None,0.6,0.6,,,,,,,,,,,1,0,157,157,157,1,,,,,,,,,,,,,,,,,,,,,,,,,,,,,,,,,
,example3,1,2025-01-01_00h00.00.000,PGNGS_shapes_600ms_v11r1,2022.2.5,Win32,59.52380952,,,,,,L_HalfOval.bmp,None,L_HalfOval.bmp,None,L_parallelogram.bmp,None,L_pentagon.bmp,None,L_circle.bmp,n,L_pentagon.bmp,None,0.6,0.6,,,,,,,,,,,1,0,158,158,158,1,,,,,,,,,,,,,,,,,,,,,,,,,,,,,,,,,
,example3,1,2025-01-01_00h00.00.000,PGNGS_shapes_600ms_v11r1,2022.2.5,Win32,59.52380952,,,,,,L_parallelogram.bmp,None,L_square.bmp,None,L_square.bmp,None,L_parallelogram.bmp,None,L_square.bmp,None,L_square.bmp,None,0.6,0.6,,,,,,,,,,,1,0,159,159,159,1,,,,,,,,,,,,,,,,,,,,,,,,,,,,,,,,,
,example3,1,2025-01-01_00h00.00.000,PGNGS_shapes_600ms_v11r1,2022.2.5,Win32,59.52380952,,,,,,L_pentagon.bmp,None,L_parallelogram.bmp,None,L_HalfOval.bmp,None,L_HalfOval.bmp,None,L_parallelogram.bmp,None,L_diamond.bmp,None,0.6,0.3,,,,,,,,,,,1,0,160,160,160,1,,,,,,,,,,,,,,,,,,,,,,,,,,,,,,,,,
,example3,1,2025-01-01_00h00.00.000,PGNGS_shapes_600ms_v11r1,2022.2.5,Win32,59.52380952,,,,,,L_square.bmp,None,L_pentagon.bmp,None,L_diamond.bmp,None,L_square.bmp,None,L_pentagon.bmp,None,Stop.bmp,None,0.3,0.4,,,,,,,,,,,1,0,161,161,161,1,,,,,,,,,,,,,,,,,,,,,,,,,,,,,,,,,
,example3,1,2025-01-01_00h00.00.000,PGNGS_shapes_600ms_v11r1,2022.2.5,Win32,59.52380952,,,,,,L_HalfOval.bmp,None,L_HalfOval.bmp,None,Stop.bmp,None,L_pentagon.bmp,None,L_square.bmp,None,L_square.bmp,None,0.4,0.6,,,,,,,,,,,1,0,162,162,162,1,,,,,,,,,,,,,,,,,,,,,,,,,,,,,,,,,
,example3,1,2025-01-01_00h00.00.000,PGNGS_shapes_600ms_v11r1,2022.2.5,Win32,59.52380952,,,,,,L_pentagon.bmp,None,L_parallelogram.bmp,None,L_HalfOval.bmp,None,L_HalfOval.bmp,None,L_HalfOval.bmp,None,L_HalfOval.bmp,None,0.6,0.6,,,,,,,,,,,1,0,163,163,163,1,,,,,,,,,,,,,,,,,,,,,,,,,,,,,,,,,
,example3,1,2025-01-01_00h00.00.000,PGNGS_shapes_600ms_v11r1,2022.2.5,Win32,59.52380952,,,,,,L_parallelogram.bmp,None,L_square.bmp,None,L_parallelogram.bmp,None,L_square.bmp,None,L_parallelogram.bmp,None,L_pentagon.bmp,None,0.6,0.6,,,,,,,,,,,1,0,164,164,164,1,,,,,,,,,,,,,,,,,,,,,,,,,,,,,,,,,
,example3,1,2025-01-01_00h00.00.000,PGNGS_shapes_600ms_v11r1,2022.2.5,Win32,59.52380952,,,,,,L_HalfOval.bmp,None,L_HalfOval.bmp,None,L_pentagon.bmp,None,L_parallelogram.bmp,None,L_square.bmp,None,L_parallelogram.bmp,None,0.6,0.6,,,,,,,,,,,1,0,165,165,165,1,,,,,,,,,,,,,,,,,,,,,,,,,,,,,,,,,
,example3,1,2025-01-01_00h00.00.000,PGNGS_shapes_600ms_v11r1,2022.2.5,Win32,59.52380952,,,,,,L_pentagon.bmp,None,L_diamond.bmp,None,L_square.bmp,None,L_pentagon.bmp,None,L_pentagon.bmp,None,L_HalfOval.bmp,None,0.6,0.6,,,,,,,,,,,1,0,166,166,166,1,,,,,,,,,,,,,,,,,,,,,,,,,,,,,,,,,
,example3,1,2025-01-01_00h00.00.000,PGNGS_shapes_600ms_v11r1,2022.2.5,Win32,59.52380952,,,,,,L_square.bmp,None,L_parallelogram.bmp,None,L_HalfOval.bmp,None,L_HalfOval.bmp,None,L_HalfOval.bmp,None,L_circle.bmp,n,0.6,0.6,,,,,,,,,,,1,0,167,167,167,1,,,,,,,,,,,,,,,,,,,,,,,,,,,,,,,,,
,example3,1,2025-01-01_00h00.00.000,PGNGS_shapes_600ms_v11r1,2022.2.5,Win32,59.52380952,,,,,,,,L_pentagon.bmp,None,L_square.bmp,None,,,L_triangle.bmp,n,L_parallelogram.bmp,None,0.6,0.6,,,,,,,,,,,1,0,168,168,168,1,,,,,,,,,,,,,,,,,,,,,,,,,,,,,,,,,
,example3,1,2025-01-01_00h00.00.000,PGNGS_shapes_600ms_v11r1,2022.2.5,Win32,59.52380952,,,,,,,,L_HalfOval.bmp,None,L_pentagon.bmp,None,,,L_pentagon.bmp,None,L_square.bmp,None,0.6,0.6,,,,,,,,,,,1,0,169,169,169,1,,,,,,,,,,,,,,,,,,,,,,,,,,,,,,,,,
,example3,1,2025-01-01_00h00.00.000,PGNGS_shapes_600ms_v11r1,2022.2.5,Win32,59.52380952,,,,,,,,L_circle.bmp,n,L_HalfOval.bmp,None,,,L_HalfOval.bmp,None,L_HalfOval.bmp,None,0.6,0.6,,,,,,,,,,,0,0,170,170,170,1,,,,,,,,,,,,,,,,,,,,,,,,,,,,,,,,,
,example3,1,2025-01-01_00h00.00.000,PGNGS_shapes_600ms_v11r1,2022.2.5,Win32,59.52380952,,,,,,,,L_square.bmp,None,L_parallelogram.bmp,None,,,L_circle.bmp,n,L_triangle.bmp,n,0.6,0.6,,,,,,,,,,n,0,0,171,171,171,1,0.2145,,,,,,,,,,,,,,,,,,,,,,,,,,,,,,,,
