init.started,init.stopped,device_primaryInput,device_screenWidth,device_screenHeight,device_hasTouch,device_hasKeyboard,device_hasMouse,device_userAgent,init_key_input.keys,init_touch_input.x,init_touch_input.y,init_touch_input.leftButton,init_touch_input.midButton,init_touch_input.rightButton,init_touch_input.time,participant,session,date,expName,psychopyVersion,OS,frameRate,TitleScreen.started,TitleScreen.stopped,key_resp.keys,touch_resp.x,touch_resp.y,touch_resp.leftButton,touch_resp.midButton,touch_resp.rightButton,touch_resp.time,intruct1text,Instructions.started,Instructions.stopped,key_resp_2.keys,touch_resp_2.x,touch_resp_2.y,touch_resp_2.leftButton,touch_resp_2.midButton,touch_resp_2.rightButton,touch_resp_2.time,intruct2text,Instructions2.started,Instructions2.stopped,key_resp_3.keys,touch_resp_3.x,touch_resp_3.y,touch_resp_3.leftButton,touch_resp_3.midButton,touch_resp_3.rightButton,touch_resp_3.time,Instructions3.started,Instructions3.stopped,key_resp_4.keys,touch_resp_4.x,touch_resp_4.y,touch_resp_4.leftButton,touch_resp_4.midButton,touch_resp_4.rightButton,touch_resp_4.time,Instructions4.started,Instructions4.stopped,key_resp_5.keys,touch_resp_5.x,touch_resp_5.y,touch_resp_5.leftButton,touch_resp_5.midButton,touch_resp_5.rightButton,touch_resp_5.time,Instructions7.started,Instructions7.stopped,key_resp_8.keys,touch_resp_6.x,touch_resp_6.y,touch_resp_6.leftButton,touch_resp_6.midButton,touch_resp_6.rightButton,touch_resp_6.time,ToBegin.started,ToBegin.stopped,key_resp_9.keys,touch_resp_7.x,touch_resp_7.y,touch_resp_7.leftButton,touch_resp_7.midButton,touch_resp_7.rightButton,touch_resp_7.time,startfixation.started,startfixation.stopped,imagestim.started,imagestim.stopped,trialduration,stim_response.keys,touch_stim_response.x,touch_stim_response.y,touch_stim_response.leftButton,touch_stim_response.midButton,touch_stim_response.rightButton,touch_stim_response.time,touch_stim_response.clicked_name,fixation.started,fixation.stopped,fixationcrossStartSeconds,fixationcrossStopSeconds,fixationcrossGlobalTime,trials.thisRepN,trials.thisTrialN,trials.thisN,trials.thisIndex,trials.ran,eventtype,cue,correct_resp,fixationduration,cueduration,stimwithcue,LeftChoice,MiddleChoice,RightChoice,end.started,end.stopped
0,1.451,touch,270,500,TRUE,FALSE,FALSE,Mozilla/5.0 (Android 16; Mobile; rv:147.0) Gecko/147.0 Firefox/147.0,,[0.2074074074074074],[-0.14074074074074075],[1],[0],[0],[1.4500000000000028],AB89JT45,,2026-02-10_12h11.30.578,sert_artemis_2025.2.3,2025.2.3,Linux armv81,60.0240096,,,,,,,,,,,,,,,,,,,,,,,,,,,,,,,,,,,,,,,,,,,,,,,,,,,,,,,,,,,,,,,,,,,,,,,,,,,,,,,,,,,,,,,,,,,,,,,,,,,
,,,,,,,,,,,,,,,,AB89JT45,,2026-02-10_12h11.30.578,sert_artemis_2025.2.3,2025.2.3,Linux armv81,60.0240096,1.451,11.12,,[0.1037037037037037],[-0.4074074074074074],[1],[0],[0],[8.653999999999996],,,,,,,,,,,,,,,,,,,,,,,,,,,,,,,,,,,,,,,,,,,,,,,,,,,,,,,,,,,,,,,,,,,,,,,,,,,,,,,,,,,,,,,,,,
,,,,,,,,,,,,,,,,AB89JT45,,2026-02-10_12h11.30.578,sert_artemis_2025.2.3,2025.2.3,Linux armv81,60.0240096,,,,,,,,,,"You will see 3 pictures of objects on the screen.

You will choose which picture is DIFFERENT from the others",11.12,14.255,,[0.14074074074074075],[-0.3851851851851852],[1],[0],[0],[1.1210000000000093],,,,,,,,,,,,,,,,,,,,,,,,,,,,,,,,,,,,,,,,,,,,,,,,,,,,,,,,,,,,,,,,,,,,,,,,,,,,,,,,
,,,,,,,,,,,,,,,,AB89JT45,,2026-02-10_12h11.30.578,sert_artemis_2025.2.3,2025.2.3,Linux armv81,60.0240096,,,,,,,,,,,,,,,,,,,,Select a picture by tapping on it,14.255,17.367,,[0.08148148148148149],[-0.3925925925925926],[1],[0],[0],[1.0999999999999943],,,,,,,,,,,,,,,,,,,,,,,,,,,,,,,,,,,,,,,,,,,,,,,,,,,,,,,,,,,,,,,,,,,,,,
,,,,,,,,,,,,,,,,AB89JT45,,2026-02-10_12h11.30.578,sert_artemis_2025.2.3,2025.2.3,Linux armv81,60.0240096,,,,,,,,,,,,,,,,,,,,,,,,,,,,,,17.367,22.541,,[0.08888888888888889],[-0.37777777777777777],[1],[0],[0],[3.173000000000002],,,,,,,,,,,,,,,,,,,,,,,,,,,,,,,,,,,,,,,,,,,,,,,,,,,,,,,,,,,,,
,,,,,,,,,,,,,,,,AB89JT45,,2026-02-10_12h11.30.578,sert_artemis_2025.2.3,2025.2.3,Linux armv81,60.0240096,,,,,,,,,,,,,,,,,,,,,,,,,,,,,,,,,,,,,,,22.542,28.385,,[0.15555555555555556],[-0.4185185185185185],[1],[0],[0],[3.834000000000003],,,,,,,,,,,,,,,,,,,,,,,,,,,,,,,,,,,,,,,,,,,,,,,,,,,,
,,,,,,,,,,,,,,,,AB89JT45,,2026-02-10_12h11.30.578,sert_artemis_2025.2.3,2025.2.3,Linux armv81,60.0240096,,,,,,,,,,,,,,,,,,,,,,,,,,,,,,,,,,,,,,,,,,,,,,,,28.385,42.168,,[0.12962962962962962],[-0.4222222222222222],[1],[0],[0],[11.765999999999991],,,,,,,,,,,,,,,,,,,,,,,,,,,,,,,,,,,,,,,,,,,
,,,,,,,,,,,,,,,,AB89JT45,,2026-02-10_12h11.30.578,sert_artemis_2025.2.3,2025.2.3,Linux armv81,60.0240096,,,,,,,,,,,,,,,,,,,,,,,,,,,,,,,,,,,,,,,,,,,,,,,,,,,,,,,,,42.169,43.087,,[0.23333333333333334],[-0.011111111111111112],[1],[0],[0],[0.914999999999992],,,,,,,,,,,,,,,,,,,,,,,,,,,,,,,,,,
,,,,,,,,,,,,,,,,AB89JT45,,2026-02-10_12h11.30.578,sert_artemis_2025.2.3,2025.2.3,Linux armv81,60.0240096,,,,,,,,,,,,,,,,,,,,,,,,,,,,,,,,,,,,,,,,,,,,,,,,,,,,,,,,,,,,,,,,,,43.087,47.087,,,,,,,,,,,,,,,,,,,,,,,,,,,,,,,,
,,,,,,,,,,,,,,,,AB89JT45,,2026-02-10_12h11.30.578,sert_artemis_2025.2.3,2025.2.3,Linux armv81,60.0240096,,,,,,,,,,,,,,,,,,,,,,,,,,,,,,,,,,,,,,,,,,,,,,,,,,,,,,,,,,,,,,,,,,,,47.132,49.172,2.05,,[-0.31851851851851853],[-0.18518518518518517],[1],[0],[0],[1.2210000000000036],"[""LeftImage""]",49.172,49.521,0,0.348,49.521,0,0,0,0,1,objects,color,1,0.35,0.15,1.9,images/Safe_BearHug_Orange_Oval.png,images/Safe_Goggles_Blue_Rect.png,images/Lethal_Pills_Blue_Oval.png,,
,,,,,,,,,,,,,,,,AB89JT45,,2026-02-10_12h11.30.578,sert_artemis_2025.2.3,2025.2.3,Linux armv81,60.0240096,,,,,,,,,,,,,,,,,,,,,,,,,,,,,,,,,,,,,,,,,,,,,,,,,,,,,,,,,,,,,,,,,,,,49.526,51.571,2.05,,[-0.337037037037037],[-0.22592592592592592],[1],[0],[0],[1.4129999999999967],"[""LeftImage""]",51.572,51.921,0,0.349,51.921,0,1,1,1,1,objects,shape,1,0.35,0.15,1.9,images/Lethal_Noose_1_Blue_Oval.png,images/Lethal_Razor_Orange_Rhom.png,images/Safe_SeatBelt_Blue_Rhom.png,,
,,,,,,,,,,,,,,,,AB89JT45,,2026-02-10_12h11.30.578,sert_artemis_2025.2.3,2025.2.3,Linux armv81,60.0240096,,,,,,,,,,,,,,,,,,,,,,,,,,,,,,,,,,,,,,,,,,,,,,,,,,,,,,,,,,,,,,,,,,,,51.926,53.973,2.05,,[],[],[],[],[],[],[],53.973,54.321,0,0.348,54.321,0,2,2,2,1,objects,lethal,2,0.35,0.15,1.9,images/Lethal_Gun_1_Orange_Rhom.png,images/Safe_Extinguisher_Orange_Oval.png,images/Lethal_Knife_Blue_Oval.png,,
,,,,,,,,,,,,,,,,AB89JT45,,2026-02-10_12h11.30.578,sert_artemis_2025.2.3,2025.2.3,Linux armv81,60.0240096,,,,,,,,,,,,,,,,,,,,,,,,,,,,,,,,,,,,,,,,,,,,,,,,,,,,,,,,,,,,,,,,,,,,54.324,56.372,2.05,,"[0.08518518518518518,0.31851851851851853]","[0.07037037037037037,-0.12962962962962962]","[1,1]","[0,0]","[0,0]","[0.01999999999999602,1.0150000000000006]","[""MiddleImage"",""RightImage""]",56.373,56.822,0,0.449,56.822,0,3,3,3,1,objects,color,3,0.45,0.15,1.9,images/Safe_Goggles_Orange_Rect.png,images/Lethal_Poison_Orange_Oval.png,images/Safe_LifeVest_Blue_Oval.png,,
,,,,,,,,,,,,,,,,AB89JT45,,2026-02-10_12h11.30.578,sert_artemis_2025.2.3,2025.2.3,Linux armv81,60.0240096,,,,,,,,,,,,,,,,,,,,,,,,,,,,,,,,,,,,,,,,,,,,,,,,,,,,,,,,,,,,,,,,,,,,56.826,58.872,2.05,,[-0.24074074074074073],[-0.2111111111111111],[1],[0],[0],[1.1770000000000067],"[""LeftImage""]",58.873,59.222,0,0.348,59.222,0,4,4,4,1,objects,shape,2,0.35,0.15,1.9,images/Inert_Orange_Orange_Rhom.png,images/Inert_Camera_Blue_Rect.png,images/Lethal_Pills_Blue_Rhom.png,,
,,,,,,,,,,,,,,,,AB89JT45,,2026-02-10_12h11.30.578,sert_artemis_2025.2.3,2025.2.3,Linux armv81,60.0240096,,,,,,,,,,,,,,,,,,,,,,,,,,,,,,,,,,,,,,,,,,,,,,,,,,,,,,,,,,,,,,,,,,,,59.225,61.273,2.05,,[0.3148148148148148],[-0.10740740740740741],[1],[0],[0],[1.695999999999998],"[""RightImage""]",61.273,61.623,0,0.349,61.623,0,5,5,5,1,objects,lethal,2,0.35,0.15,1.9,images/Lethal_Noose_1_Blue_Rhom.png,images/Inert_Hat_Orange_Rhom.png,images/Lethal_Poison_Orange_Oval.png,,
,,,,,,,,,,,,,,,,AB89JT45,,2026-02-10_12h11.30.578,sert_artemis_2025.2.3,2025.2.3,Linux armv81,60.0240096,,,,,,,,,,,,,,,,,,,,,,,,,,,,,,,,,,,,,,,,,,,,,,,,,,,,,,,,,,,,,,,,,,,,61.624,63.673,2.05,,[],[],[],[],[],[],[],63.673,64.023,0,0.35,64.023,0,6,6,6,1,objects,lethal,1,0.35,0.15,1.9,images/Lethal_Gun_1_Blue_Rhom.png,images/Inert_Hairbrush_Orange_Rhom.png,images/Inert_Strawberry_Blue_Rect.png,,
,,,,,,,,,,,,,,,,AB89JT45,,2026-02-10_12h11.30.578,sert_artemis_2025.2.3,2025.2.3,Linux armv81,60.0240096,,,,,,,,,,,,,,,,,,,,,,,,,,,,,,,,,,,,,,,,,,,,,,,,,,,,,,,,,,,,,,,,,,,,64.026,66.073,2.05,,[0.3074074074074074],[-0.12222222222222222],[1],[0],[0],[1.4280000000000115],"[""RightImage""]",66.073,66.423,0,0.35,66.423,0,7,7,7,1,objects,color,2,0.35,0.15,1.9,images/Inert_Hat_Orange_Oval.png,images/Safe_Buoy_Blue_Oval.png,images/Safe_SeatBelt_Orange_Rect.png,,
,,,,,,,,,,,,,,,,AB89JT45,,2026-02-10_12h11.30.578,sert_artemis_2025.2.3,2025.2.3,Linux armv81,60.0240096,,,,,,,,,,,,,,,,,,,,,,,,,,,,,,,,,,,,,,,,,,,,,,,,,,,,,,,,,,,,,,,,,,,,66.425,68.476,2.05,,[0.3],[-0.08148148148148149],[1],[0],[0],[1.3829999999999814],"[""RightImage""]",68.477,68.822,0,0.345,68.823,0,8,8,8,1,objects,color,3,0.35,0.15,1.9,images/Safe_BearHug_Blue_Rect.png,images/Lethal_Razor_Blue_Rhom.png,images/Safe_Buoy_Orange_Rhom.png,,
,,,,,,,,,,,,,,,,AB89JT45,,2026-02-10_12h11.30.578,sert_artemis_2025.2.3,2025.2.3,Linux armv81,60.0240096,,,,,,,,,,,,,,,,,,,,,,,,,,,,,,,,,,,,,,,,,,,,,,,,,,,,,,,,,,,,,,,,,,,,68.832,70.876,2.05,,[0.3],[-0.13333333333333333],[1],[0],[0],[2.005999999999986],"[""RightImage""]",70.876,71.423,0,0.547,71.423,0,9,9,9,1,objects,shape,3,0.55,0.15,1.9,images/Lethal_Poison_Orange_Rect.png,images/Safe_Extinguisher_Blue_Rect.png,images/Safe_SeatBelt_Orange_Rhom.png,,
,,,,,,,,,,,,,,,,AB89JT45,,2026-02-10_12h11.30.578,sert_artemis_2025.2.3,2025.2.3,Linux armv81,60.0240096,,,,,,,,,,,,,,,,,,,,,,,,,,,,,,,,,,,,,,,,,,,,,,,,,,,,,,,,,,,,,,,,,,,,71.426,73.474,2.05,,[-0.337037037037037],[-0.2740740740740741],[1],[0],[0],[1.2120000000000175],"[""LeftImage""]",73.474,74.023,0,0.549,74.023,0,10,10,10,1,objects,color,1,0.55,0.15,1.9,images/Safe_Buoy_Blue_Rhom.png,images/Safe_BearHug_Orange_Oval.png,images/Lethal_Gun_1_Orange_Rhom.png,,
,,,,,,,,,,,,,,,,AB89JT45,,2026-02-10_12h11.30.578,sert_artemis_2025.2.3,2025.2.3,Linux armv81,60.0240096,,,,,,,,,,,,,,,,,,,,,,,,,,,,,,,,,,,,,,,,,,,,,,,,,,,,,,,,,,,,,,,,,,,,74.025,76.073,2.05,,[0.07407407407407407],[0.1037037037037037],[1],[0],[0],[1.0989999999999895],"[""MiddleImage""]",76.073,76.623,0,0.55,76.623,0,11,11,11,1,objects,color,2,0.55,0.15,1.9,images/Lethal_Noose_1_Orange_Oval.png,images/Safe_Buoy_Blue_Oval.png,images/Safe_LifeVest_Orange_Rect.png,,
,,,,,,,,,,,,,,,,AB89JT45,,2026-02-10_12h11.30.578,sert_artemis_2025.2.3,2025.2.3,Linux armv81,60.0240096,,,,,,,,,,,,,,,,,,,,,,,,,,,,,,,,,,,,,,,,,,,,,,,,,,,,,,,,,,,,,,,,,,,,76.625,78.673,2.05,,[-0.014814814814814815],[0.022222222222222223],[1],[0],[0],[0.9310000000000116],"[""MiddleImage""]",78.673,79.124,0,0.45,79.124,0,12,12,12,1,objects,color,2,0.45,0.15,1.9,images/Inert_Hairbrush_Orange_Rhom.png,images/Lethal_Razor_Blue_Rhom.png,images/Lethal_Knife_Orange_Rect.png,,
,,,,,,,,,,,,,,,,AB89JT45,,2026-02-10_12h11.30.578,sert_artemis_2025.2.3,2025.2.3,Linux armv81,60.0240096,,,,,,,,,,,,,,,,,,,,,,,,,,,,,,,,,,,,,,,,,,,,,,,,,,,,,,,,,,,,,,,,,,,,79.125,81.172,2.05,,[0.05925925925925926],[0.1111111111111111],[1],[0],[0],[1.054000000000002],"[""MiddleImage""]",81.172,81.523,0,0.351,81.523,0,13,13,13,1,objects,color,2,0.35,0.15,1.9,images/Safe_LifeVest_Orange_Rect.png,images/Safe_Extinguisher_Blue_Oval.png,images/Lethal_Noose_1_Orange_Oval.png,,
,,,,,,,,,,,,,,,,AB89JT45,,2026-02-10_12h11.30.578,sert_artemis_2025.2.3,2025.2.3,Linux armv81,60.0240096,,,,,,,,,,,,,,,,,,,,,,,,,,,,,,,,,,,,,,,,,,,,,,,,,,,,,,,,,,,,,,,,,,,,81.524,83.571,2.05,,[-0.27037037037037037],[-0.2],[1],[0],[0],[1.0809999999999889],"[""LeftImage""]",83.571,84.121,0,0.55,84.121,0,14,14,14,1,objects,color,1,0.55,0.15,1.9,images/Lethal_Poison_Blue_Oval.png,images/Lethal_Gun_1_Orange_Rhom.png,images/Inert_Strawberry_Orange_Oval.png,,
,,,,,,,,,,,,,,,,AB89JT45,,2026-02-10_12h11.30.578,sert_artemis_2025.2.3,2025.2.3,Linux armv81,60.0240096,,,,,,,,,,,,,,,,,,,,,,,,,,,,,,,,,,,,,,,,,,,,,,,,,,,,,,,,,,,,,,,,,,,,84.123,86.17,2.05,,[0.040740740740740744],[0.018518518518518517],[1],[0],[0],[1.1350000000000193],"[""MiddleImage""]",86.171,86.521,0,0.349,86.521,0,15,15,15,1,objects,color,2,0.35,0.15,1.9,images/Lethal_Knife_Blue_Rect.png,images/Lethal_Pills_Orange_Rhom.png,images/Safe_Buoy_Blue_Rhom.png,,
,,,,,,,,,,,,,,,,AB89JT45,,2026-02-10_12h11.30.578,sert_artemis_2025.2.3,2025.2.3,Linux armv81,60.0240096,,,,,,,,,,,,,,,,,,,,,,,,,,,,,,,,,,,,,,,,,,,,,,,,,,,,,,,,,,,,,,,,,,,,86.523,88.57,2.05,,[0.32222222222222224],[-0.13703703703703704],[1],[0],[0],[1.046999999999997],"[""RightImage""]",88.571,89.119,0,0.548,89.119,0,16,16,16,1,objects,color,3,0.55,0.15,1.9,images/Inert_Orange_Orange_Rect.png,images/Lethal_Knife_Orange_Oval.png,images/Inert_Book_Blue_Oval.png,,
,,,,,,,,,,,,,,,,AB89JT45,,2026-02-10_12h11.30.578,sert_artemis_2025.2.3,2025.2.3,Linux armv81,60.0240096,,,,,,,,,,,,,,,,,,,,,,,,,,,,,,,,,,,,,,,,,,,,,,,,,,,,,,,,,,,,,,,,,,,,89.12,91.169,2.05,,[-0.3037037037037037],[-0.2074074074074074],[1],[0],[0],[1.0579999999999927],"[""LeftImage""]",91.17,91.62,0,0.45,91.62,0,17,17,17,1,objects,color,1,0.45,0.15,1.9,images/Lethal_Pills_Blue_Rhom.png,images/Inert_Book_Orange_Rhom.png,images/Lethal_Gun_1_Orange_Rect.png,,
,,,,,,,,,,,,,,,,AB89JT45,,2026-02-10_12h11.30.578,sert_artemis_2025.2.3,2025.2.3,Linux armv81,60.0240096,,,,,,,,,,,,,,,,,,,,,,,,,,,,,,,,,,,,,,,,,,,,,,,,,,,,,,,,,,,,,,,,,,,,91.623,93.669,2.05,,[0.007407407407407408],[-0.022222222222222223],[1],[0],[0],[1.2960000000000207],"[""MiddleImage""]",93.669,94.019,0,0.349,94.019,0,18,18,18,1,objects,color,2,0.35,0.15,1.9,images/Lethal_Noose_1_Blue_Oval.png,images/Safe_LifeVest_Orange_Oval.png,images/Safe_Goggles_Blue_Rect.png,,
,,,,,,,,,,,,,,,,AB89JT45,,2026-02-10_12h11.30.578,sert_artemis_2025.2.3,2025.2.3,Linux armv81,60.0240096,,,,,,,,,,,,,,,,,,,,,,,,,,,,,,,,,,,,,,,,,,,,,,,,,,,,,,,,,,,,,,,,,,,,94.019,96.068,2.05,,[0.3333333333333333],[-0.11481481481481481],[1],[0],[0],[0.8830000000000098],"[""RightImage""]",96.068,96.518,0,0.45,96.519,0,19,19,19,1,objects,color,3,0.45,0.15,1.9,images/Safe_Buoy_Blue_Rect.png,images/Lethal_Razor_Blue_Oval.png,images/Safe_SeatBelt_Orange_Oval.png,,
,,,,,,,,,,,,,,,,AB89JT45,,2026-02-10_12h11.30.578,sert_artemis_2025.2.3,2025.2.3,Linux armv81,60.0240096,,,,,,,,,,,,,,,,,,,,,,,,,,,,,,,,,,,,,,,,,,,,,,,,,,,,,,,,,,,,,,,,,,,,96.521,98.567,2.05,,[0.25925925925925924],[-0.17407407407407408],[1],[0],[0],[1.2319999999999993],"[""RightImage""]",98.568,99.117,0,0.549,99.117,0,20,20,20,1,objects,shape,3,0.55,0.15,1.9,images/Lethal_Gun_1_Blue_Rect.png,images/Safe_BearHug_Orange_Rect.png,images/Safe_LifeVest_Blue_Rhom.png,,
,,,,,,,,,,,,,,,,AB89JT45,,2026-02-10_12h11.30.578,sert_artemis_2025.2.3,2025.2.3,Linux armv81,60.0240096,,,,,,,,,,,,,,,,,,,,,,,,,,,,,,,,,,,,,,,,,,,,,,,,,,,,,,,,,,,,,,,,,,,,99.119,101.169,2.05,,[0.2962962962962963],[-0.10740740740740741],[1],[0],[0],[1.217000000000013],"[""RightImage""]",101.169,101.517,0,0.348,101.517,0,21,21,21,1,objects,color,3,0.35,0.15,1.9,images/Lethal_Poison_Blue_Oval.png,images/Inert_Book_Blue_Rhom.png,images/Inert_Strawberry_Orange_Oval.png,,
,,,,,,,,,,,,,,,,AB89JT45,,2026-02-10_12h11.30.578,sert_artemis_2025.2.3,2025.2.3,Linux armv81,60.0240096,,,,,,,,,,,,,,,,,,,,,,,,,,,,,,,,,,,,,,,,,,,,,,,,,,,,,,,,,,,,,,,,,,,,101.521,103.568,2.05,,[0.27037037037037037],[-0.14444444444444443],[1],[0],[0],[1.1650000000000205],"[""RightImage""]",103.568,103.917,0,0.349,103.917,0,22,22,22,1,objects,color,3,0.35,0.15,1.9,images/Lethal_Noose_1_Blue_Oval.png,images/Safe_Buoy_Blue_Rhom.png,images/Safe_Goggles_Orange_Oval.png,,
,,,,,,,,,,,,,,,,AB89JT45,,2026-02-10_12h11.30.578,sert_artemis_2025.2.3,2025.2.3,Linux armv81,60.0240096,,,,,,,,,,,,,,,,,,,,,,,,,,,,,,,,,,,,,,,,,,,,,,,,,,,,,,,,,,,,,,,,,,,,103.923,105.968,2.05,,[0.3296296296296296],[-0.11851851851851852],[1],[0],[0],[1.3589999999999804],"[""RightImage""]",105.968,106.518,0,0.55,106.518,0,23,23,23,1,objects,lethal,2,0.55,0.15,1.9,images/Safe_Buoy_Orange_Oval.png,images/Lethal_Razor_Blue_Oval.png,images/Safe_Extinguisher_Blue_Rhom.png,,
,,,,,,,,,,,,,,,,AB89JT45,,2026-02-10_12h11.30.578,sert_artemis_2025.2.3,2025.2.3,Linux armv81,60.0240096,,,,,,,,,,,,,,,,,,,,,,,,,,,,,,,,,,,,,,,,,,,,,,,,,,,,,,,,,,,,,,,,,,,,106.521,108.568,2.05,,[0.34074074074074073],[-0.06666666666666667],[1],[0],[0],[1.7779999999999916],"[""RightImage""]",108.568,109.118,0,0.549,109.118,0,24,24,24,1,objects,color,3,0.55,0.15,1.9,images/Lethal_Knife_Orange_Rect.png,images/Inert_Orange_Orange_Rhom.png,images/Inert_Camera_Blue_Rect.png,,
,,,,,,,,,,,,,,,,AB89JT45,,2026-02-10_12h11.30.578,sert_artemis_2025.2.3,2025.2.3,Linux armv81,60.0240096,,,,,,,,,,,,,,,,,,,,,,,,,,,,,,,,,,,,,,,,,,,,,,,,,,,,,,,,,,,,,,,,,,,,109.118,111.167,2.05,,[0.044444444444444446],[0.011111111111111112],[1],[0],[0],[1.4330000000000211],"[""MiddleImage""]",111.167,111.717,0,0.55,111.717,0,25,25,25,1,objects,color,2,0.55,0.15,1.9,images/Lethal_Gun_1_Blue_Rect.png,images/Safe_SeatBelt_Orange_Rect.png,images/Safe_Extinguisher_Blue_Rhom.png,,
,,,,,,,,,,,,,,,,AB89JT45,,2026-02-10_12h11.30.578,sert_artemis_2025.2.3,2025.2.3,Linux armv81,60.0240096,,,,,,,,,,,,,,,,,,,,,,,,,,,,,,,,,,,,,,,,,,,,,,,,,,,,,,,,,,,,,,,,,,,,111.72,113.766,2.05,,[-0.32222222222222224],[-0.21851851851851853],[1],[0],[0],[1.2290000000000134],"[""LeftImage""]",113.766,114.116,0,0.35,114.116,0,26,26,26,1,objects,lethal,1,0.35,0.15,1.9,images/Inert_Hat_Orange_Oval.png,images/Lethal_Razor_Orange_Rect.png,images/Lethal_Knife_Blue_Oval.png,,
,,,,,,,,,,,,,,,,AB89JT45,,2026-02-10_12h11.30.578,sert_artemis_2025.2.3,2025.2.3,Linux armv81,60.0240096,,,,,,,,,,,,,,,,,,,,,,,,,,,,,,,,,,,,,,,,,,,,,,,,,,,,,,,,,,,,,,,,,,,,114.118,116.166,2.05,,[-0.26666666666666666],[-0.2],[1],[0],[0],[1.6160000000000139],"[""LeftImage""]",116.166,116.516,0,0.35,116.516,0,27,27,27,1,objects,lethal,3,0.35,0.15,1.9,images/Inert_Book_Blue_Rect.png,images/Inert_Hairbrush_Orange_Rhom.png,images/Lethal_Noose_1_Orange_Rect.png,,
,,,,,,,,,,,,,,,,AB89JT45,,2026-02-10_12h11.30.578,sert_artemis_2025.2.3,2025.2.3,Linux armv81,60.0240096,,,,,,,,,,,,,,,,,,,,,,,,,,,,,,,,,,,,,,,,,,,,,,,,,,,,,,,,,,,,,,,,,,,,116.519,118.567,2.05,,[0.2740740740740741],[-0.14074074074074075],[1],[0],[0],[1.5289999999999964],"[""RightImage""]",118.567,119.116,0,0.549,119.116,0,28,28,28,1,objects,shape,1,0.55,0.15,1.9,images/Inert_Hairbrush_Blue_Rhom.png,images/Lethal_Gun_1_Blue_Oval.png,images/Inert_Hat_Orange_Oval.png,,
,,,,,,,,,,,,,,,,AB89JT45,,2026-02-10_12h11.30.578,sert_artemis_2025.2.3,2025.2.3,Linux armv81,60.0240096,,,,,,,,,,,,,,,,,,,,,,,,,,,,,,,,,,,,,,,,,,,,,,,,,,,,,,,,,,,,,,,,,,,,119.118,121.165,2.05,,[0.04814814814814815],[-0.011111111111111112],[1],[0],[0],[1.4310000000000116],"[""MiddleImage""]",121.166,121.516,0,0.35,121.516,0,29,29,29,1,objects,shape,3,0.35,0.15,1.9,images/Lethal_Pills_Blue_Rect.png,images/Inert_Hairbrush_Orange_Rect.png,images/Inert_Orange_Blue_Rhom.png,,
,,,,,,,,,,,,,,,,AB89JT45,,2026-02-10_12h11.30.578,sert_artemis_2025.2.3,2025.2.3,Linux armv81,60.0240096,,,,,,,,,,,,,,,,,,,,,,,,,,,,,,,,,,,,,,,,,,,,,,,,,,,,,,,,,,,,,,,,,,,,121.518,123.566,2.05,,[0.3148148148148148],[-0.14074074074074075],[1],[0],[0],[1.4300000000000068],"[""RightImage""]",123.566,124.116,0,0.549,124.116,0,30,30,30,1,objects,lethal,2,0.55,0.15,1.9,images/Lethal_Razor_Blue_Rect.png,images/Safe_BearHug_Blue_Rhom.png,images/Lethal_Gun_1_Orange_Rhom.png,,
,,,,,,,,,,,,,,,,AB89JT45,,2026-02-10_12h11.30.578,sert_artemis_2025.2.3,2025.2.3,Linux armv81,60.0240096,,,,,,,,,,,,,,,,,,,,,,,,,,,,,,,,,,,,,,,,,,,,,,,,,,,,,,,,,,,,,,,,,,,,124.117,126.166,2.05,,[],[],[],[],[],[],[],126.167,126.715,0,0.548,126.715,0,31,31,31,1,objects,lethal,2,0.55,0.15,1.9,images/Lethal_Poison_Blue_Oval.png,images/Safe_LifeVest_Orange_Oval.png,images/Lethal_Razor_Orange_Rect.png,,
,,,,,,,,,,,,,,,,AB89JT45,,2026-02-10_12h11.30.578,sert_artemis_2025.2.3,2025.2.3,Linux armv81,60.0240096,,,,,,,,,,,,,,,,,,,,,,,,,,,,,,,,,,,,,,,,,,,,,,,,,,,,,,,,,,,,,,,,,,,,126.717,128.765,2.05,,[],[],[],[],[],[],[],128.765,129.115,0,0.35,129.115,0,32,32,32,1,objects,lethal,2,0.35,0.15,1.9,images/Lethal_Gun_1_Orange_Rhom.png,images/Safe_Extinguisher_Blue_Rhom.png,images/Lethal_Knife_Blue_Rect.png,,
,,,,,,,,,,,,,,,,AB89JT45,,2026-02-10_12h11.30.578,sert_artemis_2025.2.3,2025.2.3,Linux armv81,60.0240096,,,,,,,,,,,,,,,,,,,,,,,,,,,,,,,,,,,,,,,,,,,,,,,,,,,,,,,,,,,,,,,,,,,,129.116,131.165,2.05,,[],[],[],[],[],[],[],131.166,131.713,0,0.547,131.713,0,33,33,33,1,objects,lethal,1,0.55,0.15,1.9,images/Safe_LifeVest_Blue_Oval.png,images/Lethal_Pills_Orange_Oval.png,images/Lethal_Gun_1_Blue_Rect.png,,
,,,,,,,,,,,,,,,,AB89JT45,,2026-02-10_12h11.30.578,sert_artemis_2025.2.3,2025.2.3,Linux armv81,60.0240096,,,,,,,,,,,,,,,,,,,,,,,,,,,,,,,,,,,,,,,,,,,,,,,,,,,,,,,,,,,,,,,,,,,,131.719,133.764,2.05,,[-0.35185185185185186],[-0.25925925925925924],[1],[0],[0],[1.4480000000000075],"[""LeftImage""]",133.764,134.215,0,0.45,134.215,0,34,34,34,1,objects,lethal,1,0.45,0.15,1.9,images/Safe_BearHug_Orange_Rect.png,images/Lethal_Noose_1_Orange_Oval.png,images/Lethal_Poison_Blue_Rect.png,,
,,,,,,,,,,,,,,,,AB89JT45,,2026-02-10_12h11.30.578,sert_artemis_2025.2.3,2025.2.3,Linux armv81,60.0240096,,,,,,,,,,,,,,,,,,,,,,,,,,,,,,,,,,,,,,,,,,,,,,,,,,,,,,,,,,,,,,,,,,,,134.217,136.264,2.05,,[],[],[],[],[],[],[],136.264,136.614,0,0.35,136.614,0,35,35,35,1,objects,lethal,3,0.35,0.15,1.9,images/Lethal_Pills_Blue_Rect.png,images/Lethal_Knife_Orange_Rhom.png,images/Safe_Goggles_Blue_Rhom.png,,
,,,,,,,,,,,,,,,,AB89JT45,,2026-02-10_12h11.30.578,sert_artemis_2025.2.3,2025.2.3,Linux armv81,60.0240096,,,,,,,,,,,,,,,,,,,,,,,,,,,,,,,,,,,,,,,,,,,,,,,,,,,,,,,,,,,,,,,,,,,,136.616,138.665,2.05,,[-0.3037037037037037],[-0.25555555555555554],[1],[0],[0],[1.3659999999999854],"[""LeftImage""]",138.665,139.114,0,0.448,139.114,0,36,36,36,1,objects,lethal,1,0.45,0.15,1.9,images/Safe_BearHug_Blue_Oval.png,images/Lethal_Poison_Blue_Rect.png,images/Lethal_Noose_1_Orange_Oval.png,,
,,,,,,,,,,,,,,,,AB89JT45,,2026-02-10_12h11.30.578,sert_artemis_2025.2.3,2025.2.3,Linux armv81,60.0240096,,,,,,,,,,,,,,,,,,,,,,,,,,,,,,,,,,,,,,,,,,,,,,,,,,,,,,,,,,,,,,,,,,,,139.115,141.164,2.05,,[-0.35555555555555557],[-0.23333333333333334],[1],[0],[0],[1.3499999999999943],"[""LeftImage""]",141.164,141.514,0,0.35,141.514,0,37,37,37,1,objects,lethal,1,0.35,0.15,1.9,images/Safe_LifeVest_Orange_Rect.png,images/Lethal_Knife_Orange_Oval.png,images/Lethal_Pills_Blue_Rect.png,,
,,,,,,,,,,,,,,,,AB89JT45,,2026-02-10_12h11.30.578,sert_artemis_2025.2.3,2025.2.3,Linux armv81,60.0240096,,,,,,,,,,,,,,,,,,,,,,,,,,,,,,,,,,,,,,,,,,,,,,,,,,,,,,,,,,,,,,,,,,,,141.516,143.564,2.05,,[],[],[],[],[],[],[],143.565,143.914,0,0.349,143.914,0,38,38,38,1,objects,lethal,1,0.35,0.15,1.9,images/Safe_Extinguisher_Orange_Rhom.png,images/Lethal_Gun_1_Orange_Rect.png,images/Lethal_Razor_Blue_Rhom.png,,
,,,,,,,,,,,,,,,,AB89JT45,,2026-02-10_12h11.30.578,sert_artemis_2025.2.3,2025.2.3,Linux armv81,60.0240096,,,,,,,,,,,,,,,,,,,,,,,,,,,,,,,,,,,,,,,,,,,,,,,,,,,,,,,,,,,,,,,,,,,,143.917,145.965,2.05,,[0.007407407407407408],[-0.040740740740740744],[1],[0],[0],[1.7379999999999995],"[""MiddleImage""]",145.965,146.315,0,0.35,146.315,0,39,39,39,1,objects,lethal,2,0.35,0.15,1.9,images/Lethal_Poison_Blue_Oval.png,images/Safe_SeatBelt_Orange_Oval.png,images/Lethal_Knife_Orange_Rect.png,,
,,,,,,,,,,,,,,,,AB89JT45,,2026-02-10_12h11.30.578,sert_artemis_2025.2.3,2025.2.3,Linux armv81,60.0240096,,,,,,,,,,,,,,,,,,,,,,,,,,,,,,,,,,,,,,,,,,,,,,,,,,,,,,,,,,,,,,,,,,,,146.32,148.365,2.05,,[0.31851851851851853],[-0.07037037037037037],[1],[0],[0],[1.5420000000000016],"[""RightImage""]",148.365,148.815,0,0.45,148.815,0,40,40,40,1,objects,shape,3,0.45,0.15,1.9,images/Inert_Orange_Orange_Rect.png,images/Lethal_Poison_Blue_Rect.png,images/Inert_Hairbrush_Blue_Oval.png,,
,,,,,,,,,,,,,,,,AB89JT45,,2026-02-10_12h11.30.578,sert_artemis_2025.2.3,2025.2.3,Linux armv81,60.0240096,,,,,,,,,,,,,,,,,,,,,,,,,,,,,,,,,,,,,,,,,,,,,,,,,,,,,,,,,,,,,,,,,,,,148.818,150.865,2.05,,[0.2740740740740741],[-0.15185185185185185],[1],[0],[0],[1.3829999999999814],"[""RightImage""]",150.865,151.417,0,0.552,151.417,0,41,41,41,1,objects,shape,3,0.55,0.15,1.9,images/Lethal_Poison_Blue_Rhom.png,images/Safe_Extinguisher_Orange_Rhom.png,images/Lethal_Knife_Orange_Rect.png,,
,,,,,,,,,,,,,,,,AB89JT45,,2026-02-10_12h11.30.578,sert_artemis_2025.2.3,2025.2.3,Linux armv81,60.0240096,,,,,,,,,,,,,,,,,,,,,,,,,,,,,,,,,,,,,,,,,,,,,,,,,,,,,,,,,,,,,,,,,,,,151.419,153.465,2.05,,[-0.3],[-0.24814814814814815],[1],[0],[0],[1.2300000000000182],"[""LeftImage""]",153.465,154.016,0,0.55,154.016,0,42,42,42,1,objects,lethal,2,0.55,0.15,1.9,images/Inert_Book_Blue_Oval.png,images/Lethal_Gun_1_Orange_Oval.png,images/Inert_Hat_Orange_Rhom.png,,
,,,,,,,,,,,,,,,,AB89JT45,,2026-02-10_12h11.30.578,sert_artemis_2025.2.3,2025.2.3,Linux armv81,60.0240096,,,,,,,,,,,,,,,,,,,,,,,,,,,,,,,,,,,,,,,,,,,,,,,,,,,,,,,,,,,,,,,,,,,,154.018,156.067,2.05,,[],[],[],[],[],[],[],156.067,156.416,0,0.349,156.416,0,43,43,43,1,objects,color,1,0.35,0.15,1.9,images/Lethal_Gun_1_Orange_Rect.png,images/Lethal_Poison_Blue_Oval.png,images/Inert_Camera_Blue_Rect.png,,
,,,,,,,,,,,,,,,,AB89JT45,,2026-02-10_12h11.30.578,sert_artemis_2025.2.3,2025.2.3,Linux armv81,60.0240096,,,,,,,,,,,,,,,,,,,,,,,,,,,,,,,,,,,,,,,,,,,,,,,,,,,,,,,,,,,,,,,,,,,,156.42,158.467,2.05,,[-0.32222222222222224],[-0.22962962962962963],[1],[0],[0],[1.695999999999998],"[""LeftImage""]",158.467,158.817,0,0.35,158.817,0,44,44,44,1,objects,lethal,1,0.35,0.15,1.9,images/Inert_Book_Orange_Rect.png,images/Lethal_Noose_1_Blue_Rect.png,images/Lethal_Razor_Orange_Rhom.png,,
,,,,,,,,,,,,,,,,AB89JT45,,2026-02-10_12h11.30.578,sert_artemis_2025.2.3,2025.2.3,Linux armv81,60.0240096,,,,,,,,,,,,,,,,,,,,,,,,,,,,,,,,,,,,,,,,,,,,,,,,,,,,,,,,,,,,,,,,,,,,158.82,160.867,2.05,,[0.37777777777777777],[-0.044444444444444446],[1],[0],[0],[1.3950000000000102],"[""RightImage""]",160.868,161.418,0,0.549,161.418,0,45,45,45,1,objects,shape,3,0.55,0.15,1.9,images/Inert_Hairbrush_Blue_Rhom.png,images/Lethal_Razor_Orange_Rhom.png,images/Inert_Strawberry_Orange_Rect.png,,
,,,,,,,,,,,,,,,,AB89JT45,,2026-02-10_12h11.30.578,sert_artemis_2025.2.3,2025.2.3,Linux armv81,60.0240096,,,,,,,,,,,,,,,,,,,,,,,,,,,,,,,,,,,,,,,,,,,,,,,,,,,,,,,,,,,,,,,,,,,,161.425,163.47,2.05,,[],[],[],[],[],[],[],163.47,163.918,0,0.447,163.918,0,46,46,46,1,objects,lethal,1,0.45,0.15,1.9,images/Lethal_Noose_1_Orange_Oval.png,images/Inert_Camera_Orange_Rect.png,images/Inert_Book_Blue_Oval.png,,
,,,,,,,,,,,,,,,,AB89JT45,,2026-02-10_12h11.30.578,sert_artemis_2025.2.3,2025.2.3,Linux armv81,60.0240096,,,,,,,,,,,,,,,,,,,,,,,,,,,,,,,,,,,,,,,,,,,,,,,,,,,,,,,,,,,,,,,,,,,,163.921,165.97,2.05,,[-0.3037037037037037],[-0.23703703703703705],[1],[0],[0],[1.7139999999999986],"[""LeftImage""]",165.97,166.52,0,0.549,166.52,0,47,47,47,1,objects,color,3,0.55,0.15,1.9,images/Safe_LifeVest_Orange_Rhom.png,images/Lethal_Pills_Orange_Rect.png,images/Safe_SeatBelt_Blue_Rect.png,,
,,,,,,,,,,,,,,,,AB89JT45,,2026-02-10_12h11.30.578,sert_artemis_2025.2.3,2025.2.3,Linux armv81,60.0240096,,,,,,,,,,,,,,,,,,,,,,,,,,,,,,,,,,,,,,,,,,,,,,,,,,,,,,,,,,,,,,,,,,,,166.522,168.569,2.05,,[],[],[],[],[],[],[],168.569,169.118,0,0.549,169.118,0,48,48,48,1,objects,lethal,3,0.55,0.15,1.9,images/Lethal_Gun_1_Blue_Oval.png,images/Lethal_Poison_Orange_Rhom.png,images/Inert_Camera_Blue_Rhom.png,,
,,,,,,,,,,,,,,,,AB89JT45,,2026-02-10_12h11.30.578,sert_artemis_2025.2.3,2025.2.3,Linux armv81,60.0240096,,,,,,,,,,,,,,,,,,,,,,,,,,,,,,,,,,,,,,,,,,,,,,,,,,,,,,,,,,,,,,,,,,,,169.122,171.169,2.05,,[0.2962962962962963],[-0.17037037037037037],[1],[0],[0],[1.6990000000000123],"[""RightImage""]",171.17,171.521,0.001,0.352,171.521,0,49,49,49,1,objects,shape,3,0.35,0.15,1.9,images/Lethal_Pills_Blue_Rhom.png,images/Inert_Hat_Orange_Rhom.png,images/Inert_Strawberry_Blue_Rect.png,,
,,,,,,,,,,,,,,,,AB89JT45,,2026-02-10_12h11.30.578,sert_artemis_2025.2.3,2025.2.3,Linux armv81,60.0240096,,,,,,,,,,,,,,,,,,,,,,,,,,,,,,,,,,,,,,,,,,,,,,,,,,,,,,,,,,,,,,,,,,,,171.522,173.57,2.05,,[-0.003703703703703704],[0.003703703703703704],[1],[0],[0],[1.3629999999999995],"[""MiddleImage""]",173.57,173.92,0,0.349,173.92,0,50,50,50,1,objects,color,2,0.35,0.15,1.9,images/Lethal_Noose_1_Orange_Rect.png,images/Safe_Goggles_Blue_Rect.png,images/Safe_Buoy_Orange_Oval.png,,
,,,,,,,,,,,,,,,,AB89JT45,,2026-02-10_12h11.30.578,sert_artemis_2025.2.3,2025.2.3,Linux armv81,60.0240096,,,,,,,,,,,,,,,,,,,,,,,,,,,,,,,,,,,,,,,,,,,,,,,,,,,,,,,,,,,,,,,,,,,,173.921,175.971,2.05,,[0.3074074074074074],[-0.1925925925925926],[1],[0],[0],[0.9840000000000089],"[""RightImage""]",175.971,176.421,0,0.45,176.421,0,51,51,51,1,objects,color,3,0.45,0.15,1.9,images/Lethal_Knife_Blue_Rect.png,images/Inert_Camera_Blue_Rhom.png,images/Lethal_Noose_1_Orange_Rhom.png,,
,,,,,,,,,,,,,,,,AB89JT45,,2026-02-10_12h11.30.578,sert_artemis_2025.2.3,2025.2.3,Linux armv81,60.0240096,,,,,,,,,,,,,,,,,,,,,,,,,,,,,,,,,,,,,,,,,,,,,,,,,,,,,,,,,,,,,,,,,,,,176.423,178.471,2.05,,[0.25555555555555554],[-0.22962962962962963],[1],[0],[0],[1.0819999999999936],"[""RightImage""]",178.471,178.921,0,0.45,178.921,0,52,52,52,1,objects,color,3,0.45,0.15,1.9,images/Safe_LifeVest_Orange_Oval.png,images/Lethal_Razor_Orange_Rect.png,images/Safe_Extinguisher_Blue_Rect.png,,
,,,,,,,,,,,,,,,,AB89JT45,,2026-02-10_12h11.30.578,sert_artemis_2025.2.3,2025.2.3,Linux armv81,60.0240096,,,,,,,,,,,,,,,,,,,,,,,,,,,,,,,,,,,,,,,,,,,,,,,,,,,,,,,,,,,,,,,,,,,,178.923,180.971,2.05,,[0.24814814814814815],[-0.18518518518518517],[1],[0],[0],[0.9660000000000082],"[""RightImage""]",180.971,181.522,0,0.55,181.522,0,53,53,53,1,objects,color,3,0.55,0.15,1.9,images/Safe_Buoy_Blue_Rhom.png,images/Lethal_Pills_Blue_Rect.png,images/Safe_BearHug_Orange_Rect.png,,
,,,,,,,,,,,,,,,,AB89JT45,,2026-02-10_12h11.30.578,sert_artemis_2025.2.3,2025.2.3,Linux armv81,60.0240096,,,,,,,,,,,,,,,,,,,,,,,,,,,,,,,,,,,,,,,,,,,,,,,,,,,,,,,,,,,,,,,,,,,,181.523,183.571,2.05,,[-0.018518518518518517],[0.007407407407407408],[1],[0],[0],[1.6870000000000118],"[""MiddleImage""]",183.572,184.121,0,0.549,184.121,0,54,54,54,1,objects,color,2,0.55,0.15,1.9,images/Safe_LifeVest_Orange_Oval.png,images/Safe_BearHug_Blue_Rhom.png,images/Lethal_Gun_1_Orange_Rhom.png,,
,,,,,,,,,,,,,,,,AB89JT45,,2026-02-10_12h11.30.578,sert_artemis_2025.2.3,2025.2.3,Linux armv81,60.0240096,,,,,,,,,,,,,,,,,,,,,,,,,,,,,,,,,,,,,,,,,,,,,,,,,,,,,,,,,,,,,,,,,,,,184.122,186.172,2.05,,[0.05185185185185185],[0],[1],[0],[0],[1.4650000000000034],"[""MiddleImage""]",186.172,186.622,0,0.45,186.622,0,55,55,55,1,objects,color,2,0.45,0.15,1.9,images/Lethal_Knife_Blue_Rect.png,images/Safe_Extinguisher_Orange_Rect.png,images/Safe_LifeVest_Blue_Rhom.png,,
,,,,,,,,,,,,,,,,AB89JT45,,2026-02-10_12h11.30.578,sert_artemis_2025.2.3,2025.2.3,Linux armv81,60.0240096,,,,,,,,,,,,,,,,,,,,,,,,,,,,,,,,,,,,,,,,,,,,,,,,,,,,,,,,,,,,,,,,,,,,186.624,188.656,2.05,,[-0.014814814814814815],[0.003703703703703704],[1],[0],[0],[1.3499999999999943],"[""MiddleImage""]",188.656,189.206,0,0.55,189.206,0,56,56,56,1,objects,color,2,0.55,0.15,1.9,images/Lethal_Razor_Blue_Rect.png,images/Safe_Buoy_Orange_Rect.png,images/Safe_SeatBelt_Blue_Rhom.png,,
,,,,,,,,,,,,,,,,AB89JT45,,2026-02-10_12h11.30.578,sert_artemis_2025.2.3,2025.2.3,Linux armv81,60.0240096,,,,,,,,,,,,,,,,,,,,,,,,,,,,,,,,,,,,,,,,,,,,,,,,,,,,,,,,,,,,,,,,,,,,189.207,191.257,2.05,,[0.2962962962962963],[-0.1925925925925926],[1],[0],[0],[0.9330000000000211],"[""RightImage""]",191.257,191.607,0,0.35,191.607,0,57,57,57,1,objects,color,3,0.35,0.15,1.9,images/Lethal_Pills_Orange_Rhom.png,images/Inert_Strawberry_Orange_Oval.png,images/Inert_Book_Blue_Rhom.png,,
,,,,,,,,,,,,,,,,AB89JT45,,2026-02-10_12h11.30.578,sert_artemis_2025.2.3,2025.2.3,Linux armv81,60.0240096,,,,,,,,,,,,,,,,,,,,,,,,,,,,,,,,,,,,,,,,,,,,,,,,,,,,,,,,,,,,,,,,,,,,191.609,193.657,2.05,,[0.22962962962962963],[-0.16666666666666666],[1],[0],[0],[1.1149999999999807],"[""RightImage""]",193.657,194.106,0,0.449,194.106,0,58,58,58,1,objects,color,3,0.45,0.15,1.9,images/Safe_SeatBelt_Orange_Oval.png,images/Lethal_Gun_1_Orange_Rhom.png,images/Safe_Buoy_Blue_Rhom.png,,
,,,,,,,,,,,,,,,,AB89JT45,,2026-02-10_12h11.30.578,sert_artemis_2025.2.3,2025.2.3,Linux armv81,60.0240096,,,,,,,,,,,,,,,,,,,,,,,,,,,,,,,,,,,,,,,,,,,,,,,,,,,,,,,,,,,,,,,,,,,,194.108,196.159,2.05,,[0.27037037037037037],[-0.15555555555555556],[1],[0],[0],[0.952000000000055],"[""RightImage""]",196.16,196.708,0,0.547,196.708,0,59,59,59,1,objects,color,3,0.55,0.15,1.9,images/Inert_Book_Blue_Rhom.png,images/Lethal_Knife_Blue_Rect.png,images/Inert_Hairbrush_Orange_Rect.png,,
,,,,,,,,,,,,,,,,AB89JT45,,2026-02-10_12h11.30.578,sert_artemis_2025.2.3,2025.2.3,Linux armv81,60.0240096,,,,,,,,,,,,,,,,,,,,,,,,,,,,,,,,,,,,,,,,,,,,,,,,,,,,,,,,,,,,,,,,,,,,196.716,198.758,2.05,,[0.28888888888888886],[-0.16666666666666666],[1],[0],[0],[1.157999999999987],"[""RightImage""]",198.758,199.309,0,0.551,199.309,0,60,60,60,1,objects,shape,3,0.55,0.15,1.9,images/Safe_LifeVest_Blue_Rhom.png,images/Lethal_Pills_Orange_Rhom.png,images/Safe_BearHug_Orange_Oval.png,,
,,,,,,,,,,,,,,,,AB89JT45,,2026-02-10_12h11.30.578,sert_artemis_2025.2.3,2025.2.3,Linux armv81,60.0240096,,,,,,,,,,,,,,,,,,,,,,,,,,,,,,,,,,,,,,,,,,,,,,,,,,,,,,,,,,,,,,,,,,,,199.311,201.358,2.05,,[-0.28888888888888886],[-0.2740740740740741],[1],[0],[0],[1.363999999999976],"[""LeftImage""]",201.359,201.909,0,0.55,201.909,0,61,61,61,1,objects,shape,2,0.55,0.15,1.9,images/Safe_Extinguisher_Orange_Oval.png,images/Safe_LifeVest_Blue_Rect.png,images/Lethal_Knife_Blue_Oval.png,,
,,,,,,,,,,,,,,,,AB89JT45,,2026-02-10_12h11.30.578,sert_artemis_2025.2.3,2025.2.3,Linux armv81,60.0240096,,,,,,,,,,,,,,,,,,,,,,,,,,,,,,,,,,,,,,,,,,,,,,,,,,,,,,,,,,,,,,,,,,,,201.911,203.96,2.05,,[-0.26296296296296295],[-0.2037037037037037],[1],[0],[0],[1.6689999999999827],"[""LeftImage""]",203.96,204.411,0,0.45,204.411,0,62,62,62,1,objects,shape,2,0.45,0.15,1.9,images/Inert_Hat_Blue_Rhom.png,images/Lethal_Noose_1_Blue_Rect.png,images/Lethal_Poison_Orange_Rhom.png,,
,,,,,,,,,,,,,,,,AB89JT45,,2026-02-10_12h11.30.578,sert_artemis_2025.2.3,2025.2.3,Linux armv81,60.0240096,,,,,,,,,,,,,,,,,,,,,,,,,,,,,,,,,,,,,,,,,,,,,,,,,,,,,,,,,,,,,,,,,,,,204.413,206.461,2.05,,[0.011111111111111112],[0.06296296296296296],[1],[0],[0],[1.4149999999999636],"[""MiddleImage""]",206.461,206.911,0,0.449,206.911,0,63,63,63,1,objects,color,2,0.45,0.15,1.9,images/Lethal_Razor_Orange_Rect.png,images/Inert_Camera_Blue_Rect.png,images/Inert_Book_Orange_Oval.png,,
,,,,,,,,,,,,,,,,AB89JT45,,2026-02-10_12h11.30.578,sert_artemis_2025.2.3,2025.2.3,Linux armv81,60.0240096,,,,,,,,,,,,,,,,,,,,,,,,,,,,,,,,,,,,,,,,,,,,,,,,,,,,,,,,,,,,,,,,,,,,206.912,208.962,2.05,,[-0.025925925925925925],[0.014814814814814815],[1],[0],[0],[0.9819999999999709],"[""MiddleImage""]",208.962,209.511,0,0.549,209.511,0,64,64,64,1,objects,color,2,0.55,0.15,1.9,images/Lethal_Noose_1_Orange_Rect.png,images/Safe_Buoy_Blue_Rect.png,images/Safe_Extinguisher_Orange_Oval.png,,
,,,,,,,,,,,,,,,,AB89JT45,,2026-02-10_12h11.30.578,sert_artemis_2025.2.3,2025.2.3,Linux armv81,60.0240096,,,,,,,,,,,,,,,,,,,,,,,,,,,,,,,,,,,,,,,,,,,,,,,,,,,,,,,,,,,,,,,,,,,,209.513,211.561,2.05,,[0.32592592592592595],[-0.11851851851851852],[1],[0],[0],[0.9340000000000259],"[""RightImage""]",211.562,211.912,0,0.349,211.912,0,65,65,65,1,objects,color,3,0.35,0.15,1.9,images/Lethal_Pills_Blue_Oval.png,images/Safe_BearHug_Blue_Rhom.png,images/Safe_LifeVest_Orange_Oval.png,,
,,,,,,,,,,,,,,,,AB89JT45,,2026-02-10_12h11.30.578,sert_artemis_2025.2.3,2025.2.3,Linux armv81,60.0240096,,,,,,,,,,,,,,,,,,,,,,,,,,,,,,,,,,,,,,,,,,,,,,,,,,,,,,,,,,,,,,,,,,,,211.917,213.961,2.05,,[0.3148148148148148],[-0.13703703703703704],[1],[0],[0],[1.795000000000016],"[""RightImage""]",213.961,214.513,0,0.552,214.513,0,66,66,66,1,objects,lethal,1,0.55,0.15,1.9,images/Lethal_Pills_Blue_Rect.png,images/Inert_Camera_Orange_Rect.png,images/Inert_Orange_Blue_Oval.png,,
,,,,,,,,,,,,,,,,AB89JT45,,2026-02-10_12h11.30.578,sert_artemis_2025.2.3,2025.2.3,Linux armv81,60.0240096,,,,,,,,,,,,,,,,,,,,,,,,,,,,,,,,,,,,,,,,,,,,,,,,,,,,,,,,,,,,,,,,,,,,214.516,216.563,2.05,,[0.24814814814814815],[-0.18888888888888888],[1],[0],[0],[1.7129999999999654],"[""RightImage""]",216.563,217.013,0,0.45,217.013,0,67,67,67,1,objects,color,3,0.45,0.15,1.9,images/Safe_Buoy_Blue_Oval.png,images/Lethal_Gun_1_Blue_Rhom.png,images/Safe_Goggles_Orange_Rhom.png,,
,,,,,,,,,,,,,,,,AB89JT45,,2026-02-10_12h11.30.578,sert_artemis_2025.2.3,2025.2.3,Linux armv81,60.0240096,,,,,,,,,,,,,,,,,,,,,,,,,,,,,,,,,,,,,,,,,,,,,,,,,,,,,,,,,,,,,,,,,,,,217.015,219.064,2.05,,[0.25925925925925924],[-0.15925925925925927],[1],[0],[0],[1.0489999999999782],"[""RightImage""]",219.065,219.413,0,0.348,219.414,0,68,68,68,1,objects,color,3,0.35,0.15,1.9,images/Inert_Orange_Blue_Rect.png,images/Lethal_Noose_1_Blue_Oval.png,images/Lethal_Gun_1_Orange_Rect.png,,
,,,,,,,,,,,,,,,,AB89JT45,,2026-02-10_12h11.30.578,sert_artemis_2025.2.3,2025.2.3,Linux armv81,60.0240096,,,,,,,,,,,,,,,,,,,,,,,,,,,,,,,,,,,,,,,,,,,,,,,,,,,,,,,,,,,,,,,,,,,,219.416,221.464,2.05,,[0.27037037037037037],[-0.14074074074074075],[1],[0],[0],[1.3140000000000214],"[""RightImage""]",221.465,222.014,0,0.549,222.014,0,69,69,69,1,objects,shape,3,0.55,0.15,1.9,images/Safe_Extinguisher_Blue_Rhom.png,images/Lethal_Razor_Orange_Rhom.png,images/Safe_Goggles_Orange_Rect.png,,
,,,,,,,,,,,,,,,,AB89JT45,,2026-02-10_12h11.30.578,sert_artemis_2025.2.3,2025.2.3,Linux armv81,60.0240096,,,,,,,,,,,,,,,,,,,,,,,,,,,,,,,,,,,,,,,,,,,,,,,,,,,,,,,,,,,,,,,,,,,,222.016,224.065,2.05,,[-0.011111111111111112],[0.025925925925925925],[1],[0],[0],[1.649000000000001],"[""MiddleImage""]",224.065,224.515,0,0.45,224.515,0,70,70,70,1,objects,shape,2,0.45,0.15,1.9,images/Lethal_Noose_1_Orange_Oval.png,images/Lethal_Pills_Orange_Rhom.png,images/Inert_Hairbrush_Blue_Oval.png,,
,,,,,,,,,,,,,,,,AB89JT45,,2026-02-10_12h11.30.578,sert_artemis_2025.2.3,2025.2.3,Linux armv81,60.0240096,,,,,,,,,,,,,,,,,,,,,,,,,,,,,,,,,,,,,,,,,,,,,,,,,,,,,,,,,,,,,,,,,,,,224.515,226.568,2.05,,[-0.3074074074074074],[-0.2777777777777778],[1],[0],[0],[1.4540000000000077],"[""LeftImage""]",226.569,227.114,0,0.545,227.114,0,71,71,71,1,objects,shape,1,0.55,0.15,1.9,images/Safe_Buoy_Orange_Oval.png,images/Safe_BearHug_Blue_Rhom.png,images/Lethal_Noose_1_Orange_Rhom.png,,
,,,,,,,,,,,,,,,,AB89JT45,,2026-02-10_12h11.30.578,sert_artemis_2025.2.3,2025.2.3,Linux armv81,60.0240096,,,,,,,,,,,,,,,,,,,,,,,,,,,,,,,,,,,,,,,,,,,,,,,,,,,,,,,,,,,,,,,,,,,,227.118,229.167,2.05,,[0.3037037037037037],[-0.15925925925925927],[1],[0],[0],[1.4989999999999668],"[""RightImage""]",229.168,229.516,0,0.348,229.516,0,72,72,72,1,objects,shape,1,0.35,0.15,1.9,images/Safe_Goggles_Orange_Rhom.png,images/Lethal_Knife_Orange_Oval.png,images/Safe_Buoy_Blue_Oval.png,,
,,,,,,,,,,,,,,,,AB89JT45,,2026-02-10_12h11.30.578,sert_artemis_2025.2.3,2025.2.3,Linux armv81,60.0240096,,,,,,,,,,,,,,,,,,,,,,,,,,,,,,,,,,,,,,,,,,,,,,,,,,,,,,,,,,,,,,,,,,,,229.517,231.566,2.05,,[0.003703703703703704],[0.06666666666666667],[1],[0],[0],[1.399000000000001],"[""MiddleImage""]",231.567,232.117,0,0.55,232.117,0,73,73,73,1,objects,shape,2,0.55,0.15,1.9,images/Inert_Hat_Blue_Rect.png,images/Inert_Strawberry_Orange_Rhom.png,images/Lethal_Poison_Orange_Rect.png,,
,,,,,,,,,,,,,,,,AB89JT45,,2026-02-10_12h11.30.578,sert_artemis_2025.2.3,2025.2.3,Linux armv81,60.0240096,,,,,,,,,,,,,,,,,,,,,,,,,,,,,,,,,,,,,,,,,,,,,,,,,,,,,,,,,,,,,,,,,,,,232.119,234.168,2.05,,[-0.2777777777777778],[-0.21481481481481482],[1],[0],[0],[1.4850000000000136],"[""LeftImage""]",234.168,234.618,0,0.449,234.618,0,74,74,74,1,objects,shape,1,0.45,0.15,1.9,images/Safe_Goggles_Orange_Oval.png,images/Lethal_Poison_Orange_Rect.png,images/Safe_SeatBelt_Blue_Rect.png,,
,,,,,,,,,,,,,,,,AB89JT45,,2026-02-10_12h11.30.578,sert_artemis_2025.2.3,2025.2.3,Linux armv81,60.0240096,,,,,,,,,,,,,,,,,,,,,,,,,,,,,,,,,,,,,,,,,,,,,,,,,,,,,,,,,,,,,,,,,,,,234.62,236.668,2.05,,[0.25925925925925924],[-0.24814814814814815],[1],[0],[0],[1.5160000000000196],"[""RightImage""]",236.668,237.019,0,0.35,237.019,0,75,75,75,1,objects,shape,3,0.35,0.15,1.9,images/Lethal_Knife_Blue_Oval.png,images/Inert_Hairbrush_Orange_Oval.png,images/Inert_Camera_Blue_Rhom.png,,
,,,,,,,,,,,,,,,,AB89JT45,,2026-02-10_12h11.30.578,sert_artemis_2025.2.3,2025.2.3,Linux armv81,60.0240096,,,,,,,,,,,,,,,,,,,,,,,,,,,,,,,,,,,,,,,,,,,,,,,,,,,,,,,,,,,,,,,,,,,,237.02,239.069,2.05,,[0.07407407407407407],[0.02962962962962963],[1],[0],[0],[1.882000000000005],"[""MiddleImage""]",239.069,239.619,0,0.55,239.619,0,76,76,76,1,objects,shape,2,0.55,0.15,1.9,images/Inert_Strawberry_Orange_Oval.png,images/Lethal_Poison_Orange_Rect.png,images/Lethal_Razor_Blue_Oval.png,,
,,,,,,,,,,,,,,,,AB89JT45,,2026-02-10_12h11.30.578,sert_artemis_2025.2.3,2025.2.3,Linux armv81,60.0240096,,,,,,,,,,,,,,,,,,,,,,,,,,,,,,,,,,,,,,,,,,,,,,,,,,,,,,,,,,,,,,,,,,,,239.62,241.669,2.05,,[0.2962962962962963],[-0.18518518518518517],[1],[0],[0],[1.2989999999999782],"[""RightImage""]",241.669,242.019,0,0.349,242.019,0,77,77,77,1,objects,shape,3,0.35,0.15,1.9,images/Safe_Buoy_Orange_Rect.png,images/Lethal_Knife_Blue_Rect.png,images/Safe_Extinguisher_Blue_Oval.png,,
,,,,,,,,,,,,,,,,AB89JT45,,2026-02-10_12h11.30.578,sert_artemis_2025.2.3,2025.2.3,Linux armv81,60.0240096,,,,,,,,,,,,,,,,,,,,,,,,,,,,,,,,,,,,,,,,,,,,,,,,,,,,,,,,,,,,,,,,,,,,242.021,244.07,2.05,,[0.23333333333333334],[-0.1814814814814815],[1],[0],[0],[1.2560000000000286],"[""RightImage""]",244.07,244.62,0,0.549,244.62,0,78,78,78,1,objects,shape,3,0.55,0.15,1.9,images/Lethal_Pills_Blue_Rect.png,images/Safe_SeatBelt_Orange_Rect.png,images/Safe_Goggles_Blue_Rhom.png,,
,,,,,,,,,,,,,,,,AB89JT45,,2026-02-10_12h11.30.578,sert_artemis_2025.2.3,2025.2.3,Linux armv81,60.0240096,,,,,,,,,,,,,,,,,,,,,,,,,,,,,,,,,,,,,,,,,,,,,,,,,,,,,,,,,,,,,,,,,,,,244.622,246.67,2.05,,[-0.3074074074074074],[-0.2],[1],[0],[0],[1.1140000000000327],"[""LeftImage""]",246.67,247.22,0,0.55,247.22,0,79,79,79,1,objects,shape,1,0.55,0.15,1.9,images/Safe_SeatBelt_Orange_Rhom.png,images/Lethal_Noose_1_Orange_Oval.png,images/Lethal_Knife_Blue_Oval.png,,
,,,,,,,,,,,,,,,,AB89JT45,,2026-02-10_12h11.30.578,sert_artemis_2025.2.3,2025.2.3,Linux armv81,60.0240096,,,,,,,,,,,,,,,,,,,,,,,,,,,,,,,,,,,,,,,,,,,,,,,,,,,,,,,,,,,,,,,,,,,,247.222,249.27,2.05,,[0.3],[-0.17407407407407408],[1],[0],[0],[1.08299999999997],"[""RightImage""]",249.27,249.72,0,0.45,249.72,0,80,80,80,1,objects,shape,3,0.45,0.15,1.9,images/Safe_Extinguisher_Blue_Rhom.png,images/Lethal_Poison_Orange_Rhom.png,images/Safe_SeatBelt_Orange_Oval.png,,
,,,,,,,,,,,,,,,,AB89JT45,,2026-02-10_12h11.30.578,sert_artemis_2025.2.3,2025.2.3,Linux armv81,60.0240096,,,,,,,,,,,,,,,,,,,,,,,,,,,,,,,,,,,,,,,,,,,,,,,,,,,,,,,,,,,,,,,,,,,,249.721,251.771,2.05,,[0.04814814814814815],[-0.003703703703703704],[1],[0],[0],[1.6829999999999927],"[""MiddleImage""]",251.771,252.121,0,0.349,252.121,0,81,81,81,1,objects,shape,2,0.35,0.15,1.9,images/Lethal_Razor_Orange_Oval.png,images/Safe_Buoy_Orange_Rect.png,images/Safe_BearHug_Blue_Oval.png,,
,,,,,,,,,,,,,,,,AB89JT45,,2026-02-10_12h11.30.578,sert_artemis_2025.2.3,2025.2.3,Linux armv81,60.0240096,,,,,,,,,,,,,,,,,,,,,,,,,,,,,,,,,,,,,,,,,,,,,,,,,,,,,,,,,,,,,,,,,,,,252.125,254.171,2.05,,[0.25555555555555554],[-0.1814814814814815],[1],[0],[0],[1.5510000000000446],"[""RightImage""]",254.172,254.621,0,0.448,254.621,0,82,82,82,1,objects,color,3,0.45,0.15,1.9,images/Lethal_Noose_1_Orange_Rhom.png,images/Safe_Extinguisher_Orange_Rect.png,images/Safe_Goggles_Blue_Rhom.png,,
,,,,,,,,,,,,,,,,AB89JT45,,2026-02-10_12h11.30.578,sert_artemis_2025.2.3,2025.2.3,Linux armv81,60.0240096,,,,,,,,,,,,,,,,,,,,,,,,,,,,,,,,,,,,,,,,,,,,,,,,,,,,,,,,,,,,,,,,,,,,254.622,256.672,2.05,,[-0.018518518518518517],[0.08518518518518518],[1],[0],[0],[1.0830000000000268],"[""MiddleImage""]",256.673,257.123,0,0.449,257.123,0,83,83,83,1,objects,color,2,0.45,0.15,1.9,images/Inert_Orange_Blue_Oval.png,images/Inert_Book_Orange_Rhom.png,images/Lethal_Poison_Blue_Rhom.png,,
,,,,,,,,,,,,,,,,AB89JT45,,2026-02-10_12h11.30.578,sert_artemis_2025.2.3,2025.2.3,Linux armv81,60.0240096,,,,,,,,,,,,,,,,,,,,,,,,,,,,,,,,,,,,,,,,,,,,,,,,,,,,,,,,,,,,,,,,,,,,257.133,259.173,2.05,,[-0.28888888888888886],[-0.23333333333333334],[1],[0],[0],[1.5199999999999818],"[""LeftImage""]",259.174,259.622,0,0.448,259.622,0,84,84,84,1,objects,lethal,3,0.45,0.15,1.9,images/Inert_Hairbrush_Blue_Rect.png,images/Inert_Camera_Orange_Oval.png,images/Lethal_Pills_Blue_Oval.png,,
,,,,,,,,,,,,,,,,AB89JT45,,2026-02-10_12h11.30.578,sert_artemis_2025.2.3,2025.2.3,Linux armv81,60.0240096,,,,,,,,,,,,,,,,,,,,,,,,,,,,,,,,,,,,,,,,,,,,,,,,,,,,,,,,,,,,,,,,,,,,259.623,261.674,2.05,,[0.32222222222222224],[-0.08888888888888889],[1],[0],[0],[1.717999999999961],"[""RightImage""]",261.674,262.024,0,0.35,262.024,0,85,85,85,1,objects,lethal,3,0.35,0.15,1.9,images/Lethal_Gun_1_Blue_Rect.png,images/Lethal_Pills_Orange_Rhom.png,images/Inert_Hat_Orange_Rect.png,,
,,,,,,,,,,,,,,,,AB89JT45,,2026-02-10_12h11.30.578,sert_artemis_2025.2.3,2025.2.3,Linux armv81,60.0240096,,,,,,,,,,,,,,,,,,,,,,,,,,,,,,,,,,,,,,,,,,,,,,,,,,,,,,,,,,,,,,,,,,,,262.026,264.074,2.05,,[-0.044444444444444446],[0.05925925925925926],[1],[0],[0],[1.170000000000016],"[""MiddleImage""]",264.074,264.527,0,0.452,264.527,0,86,86,86,1,objects,lethal,2,0.45,0.15,1.9,images/Lethal_Pills_Blue_Oval.png,images/Inert_Orange_Orange_Oval.png,images/Lethal_Knife_Orange_Rhom.png,,
,,,,,,,,,,,,,,,,AB89JT45,,2026-02-10_12h11.30.578,sert_artemis_2025.2.3,2025.2.3,Linux armv81,60.0240096,,,,,,,,,,,,,,,,,,,,,,,,,,,,,,,,,,,,,,,,,,,,,,,,,,,,,,,,,,,,,,,,,,,,264.528,266.574,2.05,,[0.26296296296296295],[-0.22592592592592592],[1],[0],[0],[1.2300000000000182],"[""RightImage""]",266.574,267.024,0,0.45,267.024,0,87,87,87,1,objects,shape,2,0.45,0.15,1.9,images/Safe_Buoy_Blue_Rect.png,images/Safe_LifeVest_Orange_Oval.png,images/Lethal_Poison_Orange_Rect.png,,
,,,,,,,,,,,,,,,,AB89JT45,,2026-02-10_12h11.30.578,sert_artemis_2025.2.3,2025.2.3,Linux armv81,60.0240096,,,,,,,,,,,,,,,,,,,,,,,,,,,,,,,,,,,,,,,,,,,,,,,,,,,,,,,,,,,,,,,,,,,,267.027,269.074,2.05,,[0.06666666666666667],[0.08518518518518518],[1],[0],[0],[1.561999999999955],"[""MiddleImage""]",269.075,269.624,0,0.549,269.624,0,88,88,88,1,objects,color,2,0.55,0.15,1.9,images/Lethal_Gun_1_Blue_Rect.png,images/Inert_Strawberry_Orange_Oval.png,images/Lethal_Noose_1_Blue_Rhom.png,,
,,,,,,,,,,,,,,,,AB89JT45,,2026-02-10_12h11.30.578,sert_artemis_2025.2.3,2025.2.3,Linux armv81,60.0240096,,,,,,,,,,,,,,,,,,,,,,,,,,,,,,,,,,,,,,,,,,,,,,,,,,,,,,,,,,,,,,,,,,,,269.626,271.674,2.05,,[0.044444444444444446],[0.08148148148148149],[1],[0],[0],[1.266999999999996],"[""MiddleImage""]",271.674,272.024,0,0.35,272.025,0,89,89,89,1,objects,color,2,0.35,0.15,1.9,images/Safe_Buoy_Orange_Rhom.png,images/Safe_SeatBelt_Blue_Oval.png,images/Lethal_Pills_Orange_Oval.png,,
,,,,,,,,,,,,,,,,AB89JT45,,2026-02-10_12h11.30.578,sert_artemis_2025.2.3,2025.2.3,Linux armv81,60.0240096,,,,,,,,,,,,,,,,,,,,,,,,,,,,,,,,,,,,,,,,,,,,,,,,,,,,,,,,,,,,,,,,,,,,272.026,274.075,2.05,,[-0.007407407407407408],[0.007407407407407408],[1],[0],[0],[1.6330000000000382],"[""MiddleImage""]",274.075,274.525,0,0.45,274.525,0,90,90,90,1,objects,lethal,1,0.45,0.15,1.9,images/Lethal_Knife_Blue_Rhom.png,images/Inert_Camera_Orange_Rhom.png,images/Inert_Orange_Blue_Rect.png,,
,,,,,,,,,,,,,,,,AB89JT45,,2026-02-10_12h11.30.578,sert_artemis_2025.2.3,2025.2.3,Linux armv81,60.0240096,,,,,,,,,,,,,,,,,,,,,,,,,,,,,,,,,,,,,,,,,,,,,,,,,,,,,,,,,,,,,,,,,,,,274.528,276.576,2.05,,[-0.08888888888888889],[0.044444444444444446],[1],[0],[0],[1.632000000000005],"[""MiddleImage""]",276.577,277.126,0,0.549,277.126,0,91,91,91,1,objects,lethal,3,0.55,0.15,1.9,images/Safe_LifeVest_Orange_Rhom.png,images/Safe_BearHug_Blue_Oval.png,images/Lethal_Razor_Orange_Oval.png,,
,,,,,,,,,,,,,,,,AB89JT45,,2026-02-10_12h11.30.578,sert_artemis_2025.2.3,2025.2.3,Linux armv81,60.0240096,,,,,,,,,,,,,,,,,,,,,,,,,,,,,,,,,,,,,,,,,,,,,,,,,,,,,,,,,,,,,,,,,,,,277.128,279.176,2.05,,[-0.2814814814814815],[-0.21851851851851853],[1],[0],[0],[1.3480000000000132],"[""LeftImage""]",279.176,279.526,0,0.35,279.526,0,92,92,92,1,objects,lethal,2,0.35,0.15,1.9,images/Inert_Hat_Orange_Oval.png,images/Lethal_Poison_Blue_Oval.png,images/Inert_Hairbrush_Blue_Rhom.png,,
,,,,,,,,,,,,,,,,AB89JT45,,2026-02-10_12h11.30.578,sert_artemis_2025.2.3,2025.2.3,Linux armv81,60.0240096,,,,,,,,,,,,,,,,,,,,,,,,,,,,,,,,,,,,,,,,,,,,,,,,,,,,,,,,,,,,,,,,,,,,279.529,281.578,2.05,,[],[],[],[],[],[],[],281.578,281.928,0,0.35,281.928,0,93,93,93,1,objects,lethal,1,0.35,0.15,1.9,images/Lethal_Razor_Orange_Rhom.png,images/Inert_Camera_Blue_Rhom.png,images/Inert_Strawberry_Orange_Rect.png,,
,,,,,,,,,,,,,,,,AB89JT45,,2026-02-10_12h11.30.578,sert_artemis_2025.2.3,2025.2.3,Linux armv81,60.0240096,,,,,,,,,,,,,,,,,,,,,,,,,,,,,,,,,,,,,,,,,,,,,,,,,,,,,,,,,,,,,,,,,,,,281.929,283.978,2.05,,[-0.2777777777777778],[-0.2222222222222222],[1],[0],[0],[1.7830000000000155],"[""LeftImage""]",283.978,284.328,0,0.35,284.328,0,94,94,94,1,objects,lethal,2,0.35,0.15,1.9,images/Safe_SeatBelt_Blue_Oval.png,images/Lethal_Knife_Orange_Oval.png,images/Safe_Goggles_Orange_Rect.png,,
,,,,,,,,,,,,,,,,AB89JT45,,2026-02-10_12h11.30.578,sert_artemis_2025.2.3,2025.2.3,Linux armv81,60.0240096,,,,,,,,,,,,,,,,,,,,,,,,,,,,,,,,,,,,,,,,,,,,,,,,,,,,,,,,,,,,,,,,,,,,284.331,286.38,2.05,,[-0.29259259259259257],[-0.2074074074074074],[1],[0],[0],[1.8670000000000186],"[""LeftImage""]",286.38,286.93,0,0.549,286.93,0,95,95,95,1,objects,lethal,1,0.55,0.15,1.9,images/Lethal_Noose_1_Blue_Rect.png,images/Safe_LifeVest_Orange_Rect.png,images/Safe_Extinguisher_Blue_Oval.png,,
,,,,,,,,,,,,,,,,AB89JT45,,2026-02-10_12h11.30.578,sert_artemis_2025.2.3,2025.2.3,Linux armv81,60.0240096,,,,,,,,,,,,,,,,,,,,,,,,,,,,,,,,,,,,,,,,,,,,,,,,,,,,,,,,,,,,,,,,,,,,286.931,288.981,2.05,,[0.022222222222222223],[0.011111111111111112],[1],[0],[0],[1.7679999999999723],"[""MiddleImage""]",288.981,289.43,0,0.449,289.43,0,96,96,96,1,objects,lethal,1,0.45,0.15,1.9,images/Lethal_Razor_Orange_Rect.png,images/Inert_Book_Blue_Rect.png,images/Inert_Orange_Orange_Rhom.png,,
,,,,,,,,,,,,,,,,AB89JT45,,2026-02-10_12h11.30.578,sert_artemis_2025.2.3,2025.2.3,Linux armv81,60.0240096,,,,,,,,,,,,,,,,,,,,,,,,,,,,,,,,,,,,,,,,,,,,,,,,,,,,,,,,,,,,,,,,,,,,289.435,291.482,2.05,,[],[],[],[],[],[],[],291.482,291.932,0,0.45,291.932,0,97,97,97,1,objects,lethal,1,0.45,0.15,1.9,images/Lethal_Poison_Blue_Rhom.png,images/Safe_Buoy_Orange_Rhom.png,images/Safe_LifeVest_Blue_Oval.png,,
,,,,,,,,,,,,,,,,AB89JT45,,2026-02-10_12h11.30.578,sert_artemis_2025.2.3,2025.2.3,Linux armv81,60.0240096,,,,,,,,,,,,,,,,,,,,,,,,,,,,,,,,,,,,,,,,,,,,,,,,,,,,,,,,,,,,,,,,,,,,291.933,293.982,2.05,,[0.05925925925925926],[0.07407407407407407],[1],[0],[0],[1.9189999999999827],"[""MiddleImage""]",293.982,294.433,0,0.451,294.433,0,98,98,98,1,objects,lethal,2,0.45,0.15,1.9,images/Inert_Hairbrush_Blue_Oval.png,images/Lethal_Noose_1_Orange_Oval.png,images/Inert_Book_Orange_Rect.png,,
,,,,,,,,,,,,,,,,AB89JT45,,2026-02-10_12h11.30.578,sert_artemis_2025.2.3,2025.2.3,Linux armv81,60.0240096,,,,,,,,,,,,,,,,,,,,,,,,,,,,,,,,,,,,,,,,,,,,,,,,,,,,,,,,,,,,,,,,,,,,294.434,296.484,2.05,,[],[],[],[],[],[],[],296.484,296.834,0,0.349,296.834,0,99,99,99,1,objects,lethal,1,0.35,0.15,1.9,images/Lethal_Knife_Orange_Rect.png,images/Safe_BearHug_Blue_Rect.png,images/Safe_Goggles_Orange_Oval.png,,
,,,,,,,,,,,,,,,,AB89JT45,,2026-02-10_12h11.30.578,sert_artemis_2025.2.3,2025.2.3,Linux armv81,60.0240096,,,,,,,,,,,,,,,,,,,,,,,,,,,,,,,,,,,,,,,,,,,,,,,,,,,,,,,,,,,,,,,,,,,,296.835,298.884,2.05,,[-0.34074074074074073],[-0.2851851851851852],[1],[0],[0],[1.3659999999999854],"[""LeftImage""]",298.885,299.335,0,0.45,299.335,0,100,100,100,1,objects,lethal,2,0.45,0.15,1.9,images/Safe_SeatBelt_Blue_Rect.png,images/Lethal_Razor_Blue_Rhom.png,images/Safe_Buoy_Orange_Rhom.png,,
,,,,,,,,,,,,,,,,AB89JT45,,2026-02-10_12h11.30.578,sert_artemis_2025.2.3,2025.2.3,Linux armv81,60.0240096,,,,,,,,,,,,,,,,,,,,,,,,,,,,,,,,,,,,,,,,,,,,,,,,,,,,,,,,,,,,,,,,,,,,299.336,301.386,2.05,,[-0.32592592592592595],[-0.21851851851851853],[1],[0],[0],[1.8350000000000364],"[""LeftImage""]",301.387,301.736,0,0.349,301.736,0,101,101,101,1,objects,lethal,1,0.35,0.15,1.9,images/Lethal_Noose_1_Orange_Rect.png,images/Safe_Buoy_Blue_Rect.png,images/Safe_BearHug_Orange_Oval.png,,
,,,,,,,,,,,,,,,,AB89JT45,,2026-02-10_12h11.30.578,sert_artemis_2025.2.3,2025.2.3,Linux armv81,60.0240096,,,,,,,,,,,,,,,,,,,,,,,,,,,,,,,,,,,,,,,,,,,,,,,,,,,,,,,,,,,,,,,,,,,,301.738,303.788,2.05,,[0.25555555555555554],[-0.12962962962962962],[1],[0],[0],[1.6149999999999523],"[""RightImage""]",303.788,304.137,0,0.349,304.137,0,102,102,102,1,objects,lethal,3,0.35,0.15,1.9,images/Lethal_Gun_1_Blue_Rect.png,images/Lethal_Noose_1_Orange_Rhom.png,images/Safe_Goggles_Orange_Rect.png,,
,,,,,,,,,,,,,,,,AB89JT45,,2026-02-10_12h11.30.578,sert_artemis_2025.2.3,2025.2.3,Linux armv81,60.0240096,,,,,,,,,,,,,,,,,,,,,,,,,,,,,,,,,,,,,,,,,,,,,,,,,,,,,,,,,,,,,,,,,,,,304.143,306.188,2.05,,[-0.31851851851851853],[-0.18518518518518517],[1],[0],[0],[1.593999999999994],"[""LeftImage""]",306.188,306.739,0,0.551,306.739,0,103,103,103,1,objects,color,1,0.55,0.15,1.9,images/Lethal_Gun_1_Blue_Oval.png,images/Safe_Extinguisher_Orange_Oval.png,images/Lethal_Pills_Orange_Rhom.png,,
,,,,,,,,,,,,,,,,AB89JT45,,2026-02-10_12h11.30.578,sert_artemis_2025.2.3,2025.2.3,Linux armv81,60.0240096,,,,,,,,,,,,,,,,,,,,,,,,,,,,,,,,,,,,,,,,,,,,,,,,,,,,,,,,,,,,,,,,,,,,306.742,308.79,2.05,,[0.3296296296296296],[-0.2037037037037037],[1],[0],[0],[1.5950000000000273],"[""RightImage""]",308.79,309.139,0,0.349,309.139,0,104,104,104,1,objects,shape,3,0.35,0.15,1.9,images/Lethal_Poison_Blue_Oval.png,images/Inert_Camera_Orange_Oval.png,images/Inert_Camera_Blue_Rect.png,,
,,,,,,,,,,,,,,,,AB89JT45,,2026-02-10_12h11.30.578,sert_artemis_2025.2.3,2025.2.3,Linux armv81,60.0240096,,,,,,,,,,,,,,,,,,,,,,,,,,,,,,,,,,,,,,,,,,,,,,,,,,,,,,,,,,,,,,,,,,,,309.142,311.19,2.05,,[],[],[],[],[],[],[],311.191,311.641,0,0.45,311.641,0,105,105,105,1,objects,lethal,2,0.45,0.15,1.9,images/Lethal_Pills_Orange_Rect.png,images/Safe_Extinguisher_Orange_Rhom.png,images/Lethal_Gun_1_Blue_Rhom.png,,
,,,,,,,,,,,,,,,,AB89JT45,,2026-02-10_12h11.30.578,sert_artemis_2025.2.3,2025.2.3,Linux armv81,60.0240096,,,,,,,,,,,,,,,,,,,,,,,,,,,,,,,,,,,,,,,,,,,,,,,,,,,,,,,,,,,,,,,,,,,,311.643,313.693,2.05,,[-0.32592592592592595],[-0.18888888888888888],[1],[0],[0],[1.4669999999999845],"[""LeftImage""]",313.693,314.142,0,0.449,314.142,0,106,106,106,1,objects,lethal,1,0.45,0.15,1.9,images/Lethal_Knife_Blue_Rhom.png,images/Inert_Hat_Blue_Rect.png,images/Inert_Strawberry_Orange_Rhom.png,,
,,,,,,,,,,,,,,,,AB89JT45,,2026-02-10_12h11.30.578,sert_artemis_2025.2.3,2025.2.3,Linux armv81,60.0240096,,,,,,,,,,,,,,,,,,,,,,,,,,,,,,,,,,,,,,,,,,,,,,,,,,,,,,,,,,,,,,,,,,,,314.146,316.194,2.05,,[-0.2962962962962963],[-0.21851851851851853],[1],[0],[0],[1.5319999999999823],"[""LeftImage""]",316.194,316.744,0,0.55,316.744,0,107,107,107,1,objects,shape,1,0.55,0.15,1.9,images/Inert_Orange_Blue_Rect.png,images/Lethal_Pills_Blue_Rhom.png,images/Inert_Hat_Orange_Rhom.png,,
,,,,,,,,,,,,,,,,AB89JT45,,2026-02-10_12h11.30.578,sert_artemis_2025.2.3,2025.2.3,Linux armv81,60.0240096,,,,,,,,,,,,,,,,,,,,,,,,,,,,,,,,,,,,,,,,,,,,,,,,,,,,,,,,,,,,,,,,,,,,316.745,318.795,2.05,,[0.28888888888888886],[-0.10740740740740741],[1],[0],[0],[1.3330000000000268],"[""RightImage""]",318.795,319.244,0,0.449,319.244,0,108,108,108,1,objects,shape,3,0.45,0.15,1.9,images/Safe_SeatBelt_Blue_Rect.png,images/Lethal_Gun_1_Orange_Rect.png,images/Safe_Extinguisher_Orange_Oval.png,,
,,,,,,,,,,,,,,,,AB89JT45,,2026-02-10_12h11.30.578,sert_artemis_2025.2.3,2025.2.3,Linux armv81,60.0240096,,,,,,,,,,,,,,,,,,,,,,,,,,,,,,,,,,,,,,,,,,,,,,,,,,,,,,,,,,,,,,,,,,,,319.247,321.296,2.05,,[-0.3333333333333333],[-0.2518518518518518],[1],[0],[0],[1.0979999999999563],"[""LeftImage""]",321.297,321.646,0,0.348,321.646,0,109,109,109,1,objects,color,1,0.35,0.15,1.9,images/Inert_Strawberry_Orange_Rect.png,images/Inert_Book_Blue_Oval.png,images/Lethal_Noose_1_Blue_Rect.png,,
,,,,,,,,,,,,,,,,AB89JT45,,2026-02-10_12h11.30.578,sert_artemis_2025.2.3,2025.2.3,Linux armv81,60.0240096,,,,,,,,,,,,,,,,,,,,,,,,,,,,,,,,,,,,,,,,,,,,,,,,,,,,,,,,,,,,,,,,,,,,321.655,323.697,2.05,,[],[],[],[],[],[],[],323.697,324.146,0,0.449,324.146,0,110,110,110,1,objects,lethal,3,0.45,0.15,1.9,images/Lethal_Knife_Blue_Oval.png,images/Lethal_Poison_Orange_Rhom.png,images/Safe_Goggles_Orange_Oval.png,,
,,,,,,,,,,,,,,,,AB89JT45,,2026-02-10_12h11.30.578,sert_artemis_2025.2.3,2025.2.3,Linux armv81,60.0240096,,,,,,,,,,,,,,,,,,,,,,,,,,,,,,,,,,,,,,,,,,,,,,,,,,,,,,,,,,,,,,,,,,,,324.148,326.197,2.05,,[0.3074074074074074],[-0.14444444444444443],[1],[0],[0],[1.8000000000000114],"[""RightImage""]",326.197,326.747,0,0.55,326.747,0,111,111,111,1,objects,lethal,3,0.55,0.15,1.9,images/Lethal_Poison_Orange_Rect.png,images/Lethal_Noose_1_Blue_Oval.png,images/Safe_Buoy_Orange_Oval.png,,
,,,,,,,,,,,,,,,,AB89JT45,,2026-02-10_12h11.30.578,sert_artemis_2025.2.3,2025.2.3,Linux armv81,60.0240096,,,,,,,,,,,,,,,,,,,,,,,,,,,,,,,,,,,,,,,,,,,,,,,,,,,,,,,,,,,,,,,,,,,,326.748,328.797,2.05,,[0.34814814814814815],[-0.0962962962962963],[1],[0],[0],[1.8489999999999895],"[""RightImage""]",328.797,329.247,0,0.449,329.247,0,112,112,112,1,objects,lethal,1,0.45,0.15,1.9,images/Safe_LifeVest_Orange_Rect.png,images/Lethal_Pills_Orange_Rhom.png,images/Lethal_Poison_Blue_Rect.png,,
,,,,,,,,,,,,,,,,AB89JT45,,2026-02-10_12h11.30.578,sert_artemis_2025.2.3,2025.2.3,Linux armv81,60.0240096,,,,,,,,,,,,,,,,,,,,,,,,,,,,,,,,,,,,,,,,,,,,,,,,,,,,,,,,,,,,,,,,,,,,329.249,331.298,2.05,,[-0.05555555555555555],[0.003703703703703704],[1],[0],[0],[1.4990000000000236],"[""MiddleImage""]",331.298,331.849,0.001,0.55,331.849,0,113,113,113,1,objects,lethal,2,0.55,0.15,1.9,images/Lethal_Pills_Blue_Oval.png,images/Safe_SeatBelt_Orange_Oval.png,images/Lethal_Gun_1_Orange_Rhom.png,,
,,,,,,,,,,,,,,,,AB89JT45,,2026-02-10_12h11.30.578,sert_artemis_2025.2.3,2025.2.3,Linux armv81,60.0240096,,,,,,,,,,,,,,,,,,,,,,,,,,,,,,,,,,,,,,,,,,,,,,,,,,,,,,,,,,,,,,,,,,,,331.85,333.9,2.05,,[],[],[],[],[],[],[],333.9,334.349,0,0.449,334.349,0,114,114,114,1,objects,lethal,3,0.45,0.15,1.9,images/Lethal_Razor_Blue_Oval.png,images/Lethal_Knife_Orange_Rhom.png,images/Safe_LifeVest_Blue_Rhom.png,,
,,,,,,,,,,,,,,,,AB89JT45,,2026-02-10_12h11.30.578,sert_artemis_2025.2.3,2025.2.3,Linux armv81,60.0240096,,,,,,,,,,,,,,,,,,,,,,,,,,,,,,,,,,,,,,,,,,,,,,,,,,,,,,,,,,,,,,,,,,,,334.351,336.401,2.05,,[-0.32222222222222224],[-0.2518518518518518],[1],[0],[0],[1.7489999999999668],"[""LeftImage""]",336.401,336.85,0,0.448,336.85,0,115,115,115,1,objects,lethal,1,0.45,0.15,1.9,images/Safe_SeatBelt_Blue_Rhom.png,images/Lethal_Pills_Blue_Rect.png,images/Lethal_Gun_1_Orange_Rhom.png,,
,,,,,,,,,,,,,,,,AB89JT45,,2026-02-10_12h11.30.578,sert_artemis_2025.2.3,2025.2.3,Linux armv81,60.0240096,,,,,,,,,,,,,,,,,,,,,,,,,,,,,,,,,,,,,,,,,,,,,,,,,,,,,,,,,,,,,,,,,,,,336.851,338.901,2.05,,[],[],[],[],[],[],[],338.901,339.251,0,0.35,339.251,0,116,116,116,1,objects,lethal,1,0.35,0.15,1.9,images/Safe_Extinguisher_Blue_Oval.png,images/Lethal_Poison_Blue_Rhom.png,images/Lethal_Noose_1_Orange_Oval.png,,
,,,,,,,,,,,,,,,,AB89JT45,,2026-02-10_12h11.30.578,sert_artemis_2025.2.3,2025.2.3,Linux armv81,60.0240096,,,,,,,,,,,,,,,,,,,,,,,,,,,,,,,,,,,,,,,,,,,,,,,,,,,,,,,,,,,,,,,,,,,,339.252,341.301,2.05,,[0.2962962962962963],[-0.15925925925925927],[1],[0],[0],[1.617999999999995],"[""RightImage""]",341.301,341.752,0,0.451,341.752,0,117,117,117,1,objects,lethal,3,0.45,0.15,1.9,images/Lethal_Gun_1_Blue_Rect.png,images/Lethal_Razor_Orange_Oval.png,images/Safe_BearHug_Blue_Oval.png,,
,,,,,,,,,,,,,,,,AB89JT45,,2026-02-10_12h11.30.578,sert_artemis_2025.2.3,2025.2.3,Linux armv81,60.0240096,,,,,,,,,,,,,,,,,,,,,,,,,,,,,,,,,,,,,,,,,,,,,,,,,,,,,,,,,,,,,,,,,,,,341.753,343.803,2.05,,[-0.014814814814814815],[0.05555555555555555],[1],[0],[0],[1.5670000000000073],"[""MiddleImage""]",343.803,344.252,0,0.449,344.252,0,118,118,118,1,objects,lethal,1,0.45,0.15,1.9,images/Safe_LifeVest_Orange_Rhom.png,images/Lethal_Pills_Blue_Rhom.png,images/Lethal_Knife_Orange_Rect.png,,
,,,,,,,,,,,,,,,,AB89JT45,,2026-02-10_12h11.30.578,sert_artemis_2025.2.3,2025.2.3,Linux armv81,60.0240096,,,,,,,,,,,,,,,,,,,,,,,,,,,,,,,,,,,,,,,,,,,,,,,,,,,,,,,,,,,,,,,,,,,,344.254,346.302,2.05,,[],[],[],[],[],[],[],346.302,346.853,0,0.551,346.853,0,119,119,119,1,objects,lethal,3,0.55,0.15,1.9,images/Lethal_Noose_1_Blue_Oval.png,images/Lethal_Razor_Orange_Rhom.png,images/Safe_Buoy_Blue_Rhom.png,,
,,,,,,,,,,,,,,,,AB89JT45,,2026-02-10_12h11.30.578,sert_artemis_2025.2.3,2025.2.3,Linux armv81,60.0240096,,,,,,,,,,,,,,,,,,,,,,,,,,,,,,,,,,,,,,,,,,,,,,,,,,,,,,,,,,,,,,,,,,,,,,,,,,,,,,,,,,,,,,,,,,,,,,,,,,346.853,350.854
