init.started,init.stopped,device_primaryInput,device_screenWidth,device_screenHeight,device_hasTouch,device_hasKeyboard,device_hasMouse,device_userAgent,init_key_input.keys,init_key_input.rt,init_key_input.duration,init_touch_input.x,init_touch_input.y,init_touch_input.leftButton,init_touch_input.midButton,init_touch_input.rightButton,init_touch_input.time,participant,session,date,expName,psychopyVersion,OS,frameRate,TitleScreen.started,TitleScreen.stopped,key_resp.keys,key_resp.rt,key_resp.duration,touch_resp.x,touch_resp.y,touch_resp.leftButton,touch_resp.midButton,touch_resp.rightButton,touch_resp.time,Instructions.started,Instructions.stopped,key_resp_2.keys,key_resp_2.rt,key_resp_2.duration,touch_resp_2.x,touch_resp_2.y,touch_resp_2.leftButton,touch_resp_2.midButton,touch_resp_2.rightButton,touch_resp_2.time,Instructions2.started,Instructions2.stopped,key_resp_3.keys,key_resp_3.rt,key_resp_3.duration,touch_resp_3.x,touch_resp_3.y,touch_resp_3.leftButton,touch_resp_3.midButton,touch_resp_3.rightButton,touch_resp_3.time,Instructions3.started,Instructions3.stopped,key_resp_4.keys,key_resp_4.rt,key_resp_4.duration,touch_resp_4.x,touch_resp_4.y,touch_resp_4.leftButton,touch_resp_4.midButton,touch_resp_4.rightButton,touch_resp_4.time,Instructions4.started,Instructions4.stopped,key_resp_5.keys,key_resp_5.rt,key_resp_5.duration,touch_resp_5.x,touch_resp_5.y,touch_resp_5.leftButton,touch_resp_5.midButton,touch_resp_5.rightButton,touch_resp_5.time,Instructions7.started,Instructions7.stopped,key_resp_8.keys,key_resp_8.rt,key_resp_8.duration,touch_resp_6.x,touch_resp_6.y,touch_resp_6.leftButton,touch_resp_6.midButton,touch_resp_6.rightButton,touch_resp_6.time,ToBegin.started,ToBegin.stopped,key_resp_9.keys,key_resp_9.rt,key_resp_9.duration,touch_resp_7.x,touch_resp_7.y,touch_resp_7.leftButton,touch_resp_7.midButton,touch_resp_7.rightButton,touch_resp_7.time,startfixation.started,startfixation.stopped,imagestim.started,imagestim.stopped,stim_response.keys,stim_response.rt,stim_response.duration,touch_stim_response.x,touch_stim_response.y,touch_stim_response.leftButton,touch_stim_response.midButton,touch_stim_response.rightButton,touch_stim_response.time,touch_stim_response.clicked_name,fixation.started,fixation.stopped,fixationcrossStartSeconds,fixationcrossStopSeconds,fixationcrossGlobalTime,trials.thisRepN,trials.thisTrialN,trials.thisN,trials.thisIndex,trials.ran,eventtype,cue,correct_resp,fixationduration,cueduration,stimwithcue,LeftChoice,MiddleChoice,RightChoice,end.started,end.stopped
0,1.007,keyboard,1440,788,FALSE,TRUE,TRUE,Mozilla/5.0 (Macintosh; Intel Mac OS X 10.15; rv:145.0) Gecko/20100101 Firefox/145.0,space,0.983,,[],[],[],[],[],[],sert_test_2,,2025-12-22_14h24.46.803,sert_artemis_2025.2.3,2025.2.3,MacIntel,59.95203837,,,,,,,,,,,,,,,,,,,,,,,,,,,,,,,,,,,,,,,,,,,,,,,,,,,,,,,,,,,,,,,,,,,,,,,,,,,,,,,,,,,,,,,,,,,,,,,,,,,,,,,,,,,,,,,,
,,,,,,,,,,,,,,,,,,sert_test_2,,2025-12-22_14h24.46.803,sert_artemis_2025.2.3,2025.2.3,MacIntel,59.95203837,1.007,2.708,space,0.684,,[],[],[],[],[],[],,,,,,,,,,,,,,,,,,,,,,,,,,,,,,,,,,,,,,,,,,,,,,,,,,,,,,,,,,,,,,,,,,,,,,,,,,,,,,,,,,,,,,,,,,,,,,,,,,,,,
,,,,,,,,,,,,,,,,,,sert_test_2,,2025-12-22_14h24.46.803,sert_artemis_2025.2.3,2025.2.3,MacIntel,59.95203837,,,,,,,,,,,,2.708,4.823,space,0.088,,[],[],[],[],[],[],,,,,,,,,,,,,,,,,,,,,,,,,,,,,,,,,,,,,,,,,,,,,,,,,,,,,,,,,,,,,,,,,,,,,,,,,,,,,,,,,,,,,,,,,,
,,,,,,,,,,,,,,,,,,sert_test_2,,2025-12-22_14h24.46.803,sert_artemis_2025.2.3,2025.2.3,MacIntel,59.95203837,,,,,,,,,,,,,,,,,,,,,,,4.823,10.157,space,3.317,,[],[],[],[],[],[],,,,,,,,,,,,,,,,,,,,,,,,,,,,,,,,,,,,,,,,,,,,,,,,,,,,,,,,,,,,,,,,,,,,,,,,,,,,,,,
,,,,,,,,,,,,,,,,,,sert_test_2,,2025-12-22_14h24.46.803,sert_artemis_2025.2.3,2025.2.3,MacIntel,59.95203837,,,,,,,,,,,,,,,,,,,,,,,,,,,,,,,,,,10.158,13.958,space,1.785,,[],[],[],[],[],[],,,,,,,,,,,,,,,,,,,,,,,,,,,,,,,,,,,,,,,,,,,,,,,,,,,,,,,,,,,,,,,,,,,,
,,,,,,,,,,,,,,,,,,sert_test_2,,2025-12-22_14h24.46.803,sert_artemis_2025.2.3,2025.2.3,MacIntel,59.95203837,,,,,,,,,,,,,,,,,,,,,,,,,,,,,,,,,,,,,,,,,,,,,13.958,18.208,space,2.233,,[],[],[],[],[],[],,,,,,,,,,,,,,,,,,,,,,,,,,,,,,,,,,,,,,,,,,,,,,,,,,,,,,,,,
,,,,,,,,,,,,,,,,,,sert_test_2,,2025-12-22_14h24.46.803,sert_artemis_2025.2.3,2025.2.3,MacIntel,59.95203837,,,,,,,,,,,,,,,,,,,,,,,,,,,,,,,,,,,,,,,,,,,,,,,,,,,,,,,,18.208,20.908,space,0.67,,[],[],[],[],[],[],,,,,,,,,,,,,,,,,,,,,,,,,,,,,,,,,,,,,,,,,,,,,,
,,,,,,,,,,,,,,,,,,sert_test_2,,2025-12-22_14h24.46.803,sert_artemis_2025.2.3,2025.2.3,MacIntel,59.95203837,,,,,,,,,,,,,,,,,,,,,,,,,,,,,,,,,,,,,,,,,,,,,,,,,,,,,,,,,,,,,,,,,,,20.909,22.158,space,1.215,,[],[],[],[],[],[],,,,,,,,,,,,,,,,,,,,,,,,,,,,,,,,,,,
,,,,,,,,,,,,,,,,,,sert_test_2,,2025-12-22_14h24.46.803,sert_artemis_2025.2.3,2025.2.3,MacIntel,59.95203837,,,,,,,,,,,,,,,,,,,,,,,,,,,,,,,,,,,,,,,,,,,,,,,,,,,,,,,,,,,,,,,,,,,,,,,,,,,,,,22.158,26.159,,,,,,,,,,,,,,,,,,,,,,,,,,,,,,,,,
,,,,,,,,,,,,,,,,,,sert_test_2,,2025-12-22_14h24.46.803,sert_artemis_2025.2.3,2025.2.3,MacIntel,59.95203837,,,,,,,,,,,,,,,,,,,,,,,,,,,,,,,,,,,,,,,,,,,,,,,,,,,,,,,,,,,,,,,,,,,,,,,,,,,,,,,,26.205,28.242,"[""1""]",[0.8830000000000027],[null],[],[],[],[],[],[],[],28.242,28.592,0,0.349,28.592,0,0,0,0,1,objects,color,1,0.35,0.15,1.9,images/Safe_BearHug_Orange_Oval.png,images/Safe_Goggles_Blue_Rect.png,images/Lethal_Pills_Blue_Oval.png,,
,,,,,,,,,,,,,,,,,,sert_test_2,,2025-12-22_14h24.46.803,sert_artemis_2025.2.3,2025.2.3,MacIntel,59.95203837,,,,,,,,,,,,,,,,,,,,,,,,,,,,,,,,,,,,,,,,,,,,,,,,,,,,,,,,,,,,,,,,,,,,,,,,,,,,,,,,28.596,30.642,"[""1""]",[1.283999999999999],[null],[],[],[],[],[],[],[],30.642,30.991,0,0.349,30.991,0,1,1,1,1,objects,shape,1,0.35,0.15,1.9,images/Lethal_Noose_1_Blue_Oval.png,images/Lethal_Razor_Orange_Rhom.png,images/Safe_SeatBelt_Blue_Rhom.png,,
,,,,,,,,,,,,,,,,,,sert_test_2,,2025-12-22_14h24.46.803,sert_artemis_2025.2.3,2025.2.3,MacIntel,59.95203837,,,,,,,,,,,,,,,,,,,,,,,,,,,,,,,,,,,,,,,,,,,,,,,,,,,,,,,,,,,,,,,,,,,,,,,,,,,,,,,,30.995,33.042,"[""2""]",[1.689],[null],[],[],[],[],[],[],[],33.042,33.391,0,0.349,33.391,0,2,2,2,1,objects,lethal,2,0.35,0.15,1.9,images/Lethal_Gun_1_Orange_Rhom.png,images/Safe_Extinguisher_Orange_Oval.png,images/Lethal_Knife_Blue_Oval.png,,
,,,,,,,,,,,,,,,,,,sert_test_2,,2025-12-22_14h24.46.803,sert_artemis_2025.2.3,2025.2.3,MacIntel,59.95203837,,,,,,,,,,,,,,,,,,,,,,,,,,,,,,,,,,,,,,,,,,,,,,,,,,,,,,,,,,,,,,,,,,,,,,,,,,,,,,,,33.395,35.442,"[""3""]",[1.1600000000000037],[null],[],[],[],[],[],[],[],35.442,35.891,0,0.449,35.891,0,3,3,3,1,objects,color,3,0.45,0.15,1.9,images/Safe_Goggles_Orange_Rect.png,images/Lethal_Poison_Orange_Oval.png,images/Safe_LifeVest_Blue_Oval.png,,
,,,,,,,,,,,,,,,,,,sert_test_2,,2025-12-22_14h24.46.803,sert_artemis_2025.2.3,2025.2.3,MacIntel,59.95203837,,,,,,,,,,,,,,,,,,,,,,,,,,,,,,,,,,,,,,,,,,,,,,,,,,,,,,,,,,,,,,,,,,,,,,,,,,,,,,,,35.895,37.942,"[""2""]",[1.3740000000000023],[null],[],[],[],[],[],[],[],37.942,38.292,0,0.35,38.292,0,4,4,4,1,objects,shape,2,0.35,0.15,1.9,images/Inert_Orange_Orange_Rhom.png,images/Inert_Camera_Blue_Rect.png,images/Lethal_Pills_Blue_Rhom.png,,
,,,,,,,,,,,,,,,,,,sert_test_2,,2025-12-22_14h24.46.803,sert_artemis_2025.2.3,2025.2.3,MacIntel,59.95203837,,,,,,,,,,,,,,,,,,,,,,,,,,,,,,,,,,,,,,,,,,,,,,,,,,,,,,,,,,,,,,,,,,,,,,,,,,,,,,,,38.295,40.341,"[""2""]",[1.073999999999998],[null],[],[],[],[],[],[],[],40.341,40.691,0,0.35,40.691,0,5,5,5,1,objects,lethal,2,0.35,0.15,1.9,images/Lethal_Noose_1_Blue_Rhom.png,images/Inert_Hat_Orange_Rhom.png,images/Lethal_Poison_Orange_Oval.png,,
,,,,,,,,,,,,,,,,,,sert_test_2,,2025-12-22_14h24.46.803,sert_artemis_2025.2.3,2025.2.3,MacIntel,59.95203837,,,,,,,,,,,,,,,,,,,,,,,,,,,,,,,,,,,,,,,,,,,,,,,,,,,,,,,,,,,,,,,,,,,,,,,,,,,,,,,,40.692,42.741,"[""1""]",[1.5200000000000031],[null],[],[],[],[],[],[],[],42.742,43.092,0,0.349,43.092,0,6,6,6,1,objects,lethal,1,0.35,0.15,1.9,images/Lethal_Gun_1_Blue_Rhom.png,images/Inert_Hairbrush_Orange_Rhom.png,images/Inert_Strawberry_Blue_Rect.png,,
,,,,,,,,,,,,,,,,,,sert_test_2,,2025-12-22_14h24.46.803,sert_artemis_2025.2.3,2025.2.3,MacIntel,59.95203837,,,,,,,,,,,,,,,,,,,,,,,,,,,,,,,,,,,,,,,,,,,,,,,,,,,,,,,,,,,,,,,,,,,,,,,,,,,,,,,,43.094,45.142,"[""2""]",[0.9960000000000022],[null],[],[],[],[],[],[],[],45.142,45.492,0,0.35,45.492,0,7,7,7,1,objects,color,2,0.35,0.15,1.9,images/Inert_Hat_Orange_Oval.png,images/Safe_Buoy_Blue_Oval.png,images/Safe_SeatBelt_Orange_Rect.png,,
,,,,,,,,,,,,,,,,,,sert_test_2,,2025-12-22_14h24.46.803,sert_artemis_2025.2.3,2025.2.3,MacIntel,59.95203837,,,,,,,,,,,,,,,,,,,,,,,,,,,,,,,,,,,,,,,,,,,,,,,,,,,,,,,,,,,,,,,,,,,,,,,,,,,,,,,,45.492,47.542,"[""3""]",[1.391999999999996],[null],[],[],[],[],[],[],[],47.542,47.891,0,0.349,47.891,0,8,8,8,1,objects,color,3,0.35,0.15,1.9,images/Safe_BearHug_Blue_Rect.png,images/Lethal_Razor_Blue_Rhom.png,images/Safe_Buoy_Orange_Rhom.png,,
,,,,,,,,,,,,,,,,,,sert_test_2,,2025-12-22_14h24.46.803,sert_artemis_2025.2.3,2025.2.3,MacIntel,59.95203837,,,,,,,,,,,,,,,,,,,,,,,,,,,,,,,,,,,,,,,,,,,,,,,,,,,,,,,,,,,,,,,,,,,,,,,,,,,,,,,,47.893,49.942,"[""3""]",[1.4950000000000045],[null],[],[],[],[],[],[],[],49.942,50.492,0,0.55,50.492,0,9,9,9,1,objects,shape,3,0.55,0.15,1.9,images/Lethal_Poison_Orange_Rect.png,images/Safe_Extinguisher_Blue_Rect.png,images/Safe_SeatBelt_Orange_Rhom.png,,
,,,,,,,,,,,,,,,,,,sert_test_2,,2025-12-22_14h24.46.803,sert_artemis_2025.2.3,2025.2.3,MacIntel,59.95203837,,,,,,,,,,,,,,,,,,,,,,,,,,,,,,,,,,,,,,,,,,,,,,,,,,,,,,,,,,,,,,,,,,,,,,,,,,,,,,,,50.495,52.543,"[""1""]",[1.0429999999999922],[null],[],[],[],[],[],[],[],52.543,53.092,0,0.549,53.092,0,10,10,10,1,objects,color,1,0.55,0.15,1.9,images/Safe_Buoy_Blue_Rhom.png,images/Safe_BearHug_Orange_Oval.png,images/Lethal_Gun_1_Orange_Rhom.png,,
,,,,,,,,,,,,,,,,,,sert_test_2,,2025-12-22_14h24.46.803,sert_artemis_2025.2.3,2025.2.3,MacIntel,59.95203837,,,,,,,,,,,,,,,,,,,,,,,,,,,,,,,,,,,,,,,,,,,,,,,,,,,,,,,,,,,,,,,,,,,,,,,,,,,,,,,,53.094,55.142,"[""2""]",[1.0700000000000074],[null],[],[],[],[],[],[],[],55.142,55.694,0,0.55,55.694,0,11,11,11,1,objects,color,2,0.55,0.15,1.9,images/Lethal_Noose_1_Orange_Oval.png,images/Safe_Buoy_Blue_Oval.png,images/Safe_LifeVest_Orange_Rect.png,,
,,,,,,,,,,,,,,,,,,sert_test_2,,2025-12-22_14h24.46.803,sert_artemis_2025.2.3,2025.2.3,MacIntel,59.95203837,,,,,,,,,,,,,,,,,,,,,,,,,,,,,,,,,,,,,,,,,,,,,,,,,,,,,,,,,,,,,,,,,,,,,,,,,,,,,,,,55.699,57.742,"[""2""]",[0.8950000000000102],[null],[],[],[],[],[],[],[],57.743,58.192,0.001,0.45,58.192,0,12,12,12,1,objects,color,2,0.45,0.15,1.9,images/Inert_Hairbrush_Orange_Rhom.png,images/Lethal_Razor_Blue_Rhom.png,images/Lethal_Knife_Orange_Rect.png,,
,,,,,,,,,,,,,,,,,,sert_test_2,,2025-12-22_14h24.46.803,sert_artemis_2025.2.3,2025.2.3,MacIntel,59.95203837,,,,,,,,,,,,,,,,,,,,,,,,,,,,,,,,,,,,,,,,,,,,,,,,,,,,,,,,,,,,,,,,,,,,,,,,,,,,,,,,58.195,60.243,"[""2""]",[1.01400000000001],[null],[],[],[],[],[],[],[],60.243,60.593,0,0.35,60.593,0,13,13,13,1,objects,color,2,0.35,0.15,1.9,images/Safe_LifeVest_Orange_Rect.png,images/Safe_Extinguisher_Blue_Oval.png,images/Lethal_Noose_1_Orange_Oval.png,,
,,,,,,,,,,,,,,,,,,sert_test_2,,2025-12-22_14h24.46.803,sert_artemis_2025.2.3,2025.2.3,MacIntel,59.95203837,,,,,,,,,,,,,,,,,,,,,,,,,,,,,,,,,,,,,,,,,,,,,,,,,,,,,,,,,,,,,,,,,,,,,,,,,,,,,,,,60.595,62.642,"[""1""]",[0.8689999999999998],[null],[],[],[],[],[],[],[],62.643,63.192,0,0.549,63.192,0,14,14,14,1,objects,color,1,0.55,0.15,1.9,images/Lethal_Poison_Blue_Oval.png,images/Lethal_Gun_1_Orange_Rhom.png,images/Inert_Strawberry_Orange_Oval.png,,
,,,,,,,,,,,,,,,,,,sert_test_2,,2025-12-22_14h24.46.803,sert_artemis_2025.2.3,2025.2.3,MacIntel,59.95203837,,,,,,,,,,,,,,,,,,,,,,,,,,,,,,,,,,,,,,,,,,,,,,,,,,,,,,,,,,,,,,,,,,,,,,,,,,,,,,,,63.195,65.242,"[""2""]",[1.0019999999999953],[null],[],[],[],[],[],[],[],65.242,65.592,0.001,0.35,65.592,0,15,15,15,1,objects,color,2,0.35,0.15,1.9,images/Lethal_Knife_Blue_Rect.png,images/Lethal_Pills_Orange_Rhom.png,images/Safe_Buoy_Blue_Rhom.png,,
,,,,,,,,,,,,,,,,,,sert_test_2,,2025-12-22_14h24.46.803,sert_artemis_2025.2.3,2025.2.3,MacIntel,59.95203837,,,,,,,,,,,,,,,,,,,,,,,,,,,,,,,,,,,,,,,,,,,,,,,,,,,,,,,,,,,,,,,,,,,,,,,,,,,,,,,,65.595,67.643,"[""3""]",[1.034000000000006],[null],[],[],[],[],[],[],[],67.643,68.192,0,0.549,68.192,0,16,16,16,1,objects,color,3,0.55,0.15,1.9,images/Inert_Orange_Orange_Rect.png,images/Lethal_Knife_Orange_Oval.png,images/Inert_Book_Blue_Oval.png,,
,,,,,,,,,,,,,,,,,,sert_test_2,,2025-12-22_14h24.46.803,sert_artemis_2025.2.3,2025.2.3,MacIntel,59.95203837,,,,,,,,,,,,,,,,,,,,,,,,,,,,,,,,,,,,,,,,,,,,,,,,,,,,,,,,,,,,,,,,,,,,,,,,,,,,,,,,68.195,70.242,"[""1""]",[1.1170000000000044],[null],[],[],[],[],[],[],[],70.244,70.693,0,0.449,70.693,0,17,17,17,1,objects,color,1,0.45,0.15,1.9,images/Lethal_Pills_Blue_Rhom.png,images/Inert_Book_Orange_Rhom.png,images/Lethal_Gun_1_Orange_Rect.png,,
,,,,,,,,,,,,,,,,,,sert_test_2,,2025-12-22_14h24.46.803,sert_artemis_2025.2.3,2025.2.3,MacIntel,59.95203837,,,,,,,,,,,,,,,,,,,,,,,,,,,,,,,,,,,,,,,,,,,,,,,,,,,,,,,,,,,,,,,,,,,,,,,,,,,,,,,,70.696,72.743,"[""2""]",[0.9100000000000108],[null],[],[],[],[],[],[],[],72.743,73.091,0,0.348,73.091,0,18,18,18,1,objects,color,2,0.35,0.15,1.9,images/Lethal_Noose_1_Blue_Oval.png,images/Safe_LifeVest_Orange_Oval.png,images/Safe_Goggles_Blue_Rect.png,,
,,,,,,,,,,,,,,,,,,sert_test_2,,2025-12-22_14h24.46.803,sert_artemis_2025.2.3,2025.2.3,MacIntel,59.95203837,,,,,,,,,,,,,,,,,,,,,,,,,,,,,,,,,,,,,,,,,,,,,,,,,,,,,,,,,,,,,,,,,,,,,,,,,,,,,,,,73.094,75.142,"[""3""]",[0.8059999999999974],[null],[],[],[],[],[],[],[],75.143,75.592,0,0.449,75.592,0,19,19,19,1,objects,color,3,0.45,0.15,1.9,images/Safe_Buoy_Blue_Rect.png,images/Lethal_Razor_Blue_Oval.png,images/Safe_SeatBelt_Orange_Oval.png,,
,,,,,,,,,,,,,,,,,,sert_test_2,,2025-12-22_14h24.46.803,sert_artemis_2025.2.3,2025.2.3,MacIntel,59.95203837,,,,,,,,,,,,,,,,,,,,,,,,,,,,,,,,,,,,,,,,,,,,,,,,,,,,,,,,,,,,,,,,,,,,,,,,,,,,,,,,75.6,77.644,"[""2""]",[1.0010000000000048],[null],[],[],[],[],[],[],[],77.644,78.193,0,0.549,78.193,0,20,20,20,1,objects,shape,3,0.55,0.15,1.9,images/Lethal_Gun_1_Blue_Rect.png,images/Safe_BearHug_Orange_Rect.png,images/Safe_LifeVest_Blue_Rhom.png,,
,,,,,,,,,,,,,,,,,,sert_test_2,,2025-12-22_14h24.46.803,sert_artemis_2025.2.3,2025.2.3,MacIntel,59.95203837,,,,,,,,,,,,,,,,,,,,,,,,,,,,,,,,,,,,,,,,,,,,,,,,,,,,,,,,,,,,,,,,,,,,,,,,,,,,,,,,78.195,80.243,"[""3""]",[1.3279999999999887],[null],[],[],[],[],[],[],[],80.243,80.593,0,0.349,80.593,0,21,21,21,1,objects,color,3,0.35,0.15,1.9,images/Lethal_Poison_Blue_Oval.png,images/Inert_Book_Blue_Rhom.png,images/Inert_Strawberry_Orange_Oval.png,,
,,,,,,,,,,,,,,,,,,sert_test_2,,2025-12-22_14h24.46.803,sert_artemis_2025.2.3,2025.2.3,MacIntel,59.95203837,,,,,,,,,,,,,,,,,,,,,,,,,,,,,,,,,,,,,,,,,,,,,,,,,,,,,,,,,,,,,,,,,,,,,,,,,,,,,,,,80.596,82.643,"[""3""]",[1.5330000000000013],[null],[],[],[],[],[],[],[],82.643,82.992,0,0.349,82.992,0,22,22,22,1,objects,color,3,0.35,0.15,1.9,images/Lethal_Noose_1_Blue_Oval.png,images/Safe_Buoy_Blue_Rhom.png,images/Safe_Goggles_Orange_Oval.png,,
,,,,,,,,,,,,,,,,,,sert_test_2,,2025-12-22_14h24.46.803,sert_artemis_2025.2.3,2025.2.3,MacIntel,59.95203837,,,,,,,,,,,,,,,,,,,,,,,,,,,,,,,,,,,,,,,,,,,,,,,,,,,,,,,,,,,,,,,,,,,,,,,,,,,,,,,,82.996,85.043,"[""2""]",[1.9080000000000013],[null],[],[],[],[],[],[],[],85.043,85.593,0,0.55,85.593,0,23,23,23,1,objects,lethal,2,0.55,0.15,1.9,images/Safe_Buoy_Orange_Oval.png,images/Lethal_Razor_Blue_Oval.png,images/Safe_Extinguisher_Blue_Rhom.png,,
,,,,,,,,,,,,,,,,,,sert_test_2,,2025-12-22_14h24.46.803,sert_artemis_2025.2.3,2025.2.3,MacIntel,59.95203837,,,,,,,,,,,,,,,,,,,,,,,,,,,,,,,,,,,,,,,,,,,,,,,,,,,,,,,,,,,,,,,,,,,,,,,,,,,,,,,,85.597,87.644,"[""3""]",[1.0060000000000002],[null],[],[],[],[],[],[],[],87.644,88.192,0,0.547,88.192,0,24,24,24,1,objects,color,3,0.55,0.15,1.9,images/Lethal_Knife_Orange_Rect.png,images/Inert_Orange_Orange_Rhom.png,images/Inert_Camera_Blue_Rect.png,,
,,,,,,,,,,,,,,,,,,sert_test_2,,2025-12-22_14h24.46.803,sert_artemis_2025.2.3,2025.2.3,MacIntel,59.95203837,,,,,,,,,,,,,,,,,,,,,,,,,,,,,,,,,,,,,,,,,,,,,,,,,,,,,,,,,,,,,,,,,,,,,,,,,,,,,,,,88.193,90.255,"[""2""]",[0.8359999999999985],[null],[],[],[],[],[],[],[],90.255,90.793,0,0.538,90.793,0,25,25,25,1,objects,color,2,0.55,0.15,1.9,images/Lethal_Gun_1_Blue_Rect.png,images/Safe_SeatBelt_Orange_Rect.png,images/Safe_Extinguisher_Blue_Rhom.png,,
,,,,,,,,,,,,,,,,,,sert_test_2,,2025-12-22_14h24.46.803,sert_artemis_2025.2.3,2025.2.3,MacIntel,59.95203837,,,,,,,,,,,,,,,,,,,,,,,,,,,,,,,,,,,,,,,,,,,,,,,,,,,,,,,,,,,,,,,,,,,,,,,,,,,,,,,,90.802,92.843,"[""1""]",[1.3900000000000006],[null],[],[],[],[],[],[],[],92.843,93.194,0.001,0.35,93.194,0,26,26,26,1,objects,lethal,1,0.35,0.15,1.9,images/Inert_Hat_Orange_Oval.png,images/Lethal_Razor_Orange_Rect.png,images/Lethal_Knife_Blue_Oval.png,,
,,,,,,,,,,,,,,,,,,sert_test_2,,2025-12-22_14h24.46.803,sert_artemis_2025.2.3,2025.2.3,MacIntel,59.95203837,,,,,,,,,,,,,,,,,,,,,,,,,,,,,,,,,,,,,,,,,,,,,,,,,,,,,,,,,,,,,,,,,,,,,,,,,,,,,,,,93.196,95.243,"[""1""]",[1.6680000000000064],[null],[],[],[],[],[],[],[],95.244,95.594,0,0.349,95.594,0,27,27,27,1,objects,lethal,3,0.35,0.15,1.9,images/Inert_Book_Blue_Rect.png,images/Inert_Hairbrush_Orange_Rhom.png,images/Lethal_Noose_1_Orange_Rect.png,,
,,,,,,,,,,,,,,,,,,sert_test_2,,2025-12-22_14h24.46.803,sert_artemis_2025.2.3,2025.2.3,MacIntel,59.95203837,,,,,,,,,,,,,,,,,,,,,,,,,,,,,,,,,,,,,,,,,,,,,,,,,,,,,,,,,,,,,,,,,,,,,,,,,,,,,,,,95.597,97.644,"[""1""]",[1.4909999999999997],[null],[],[],[],[],[],[],[],97.644,98.193,0,0.549,98.193,0,28,28,28,1,objects,shape,1,0.55,0.15,1.9,images/Inert_Hairbrush_Blue_Rhom.png,images/Lethal_Gun_1_Blue_Oval.png,images/Inert_Hat_Orange_Oval.png,,
,,,,,,,,,,,,,,,,,,sert_test_2,,2025-12-22_14h24.46.803,sert_artemis_2025.2.3,2025.2.3,MacIntel,59.95203837,,,,,,,,,,,,,,,,,,,,,,,,,,,,,,,,,,,,,,,,,,,,,,,,,,,,,,,,,,,,,,,,,,,,,,,,,,,,,,,,98.196,100.244,"[""3""]",[1.4499999999999886],[null],[],[],[],[],[],[],[],100.244,100.594,0,0.349,100.594,0,29,29,29,1,objects,shape,3,0.35,0.15,1.9,images/Lethal_Pills_Blue_Rect.png,images/Inert_Hairbrush_Orange_Rect.png,images/Inert_Orange_Blue_Rhom.png,,
,,,,,,,,,,,,,,,,,,sert_test_2,,2025-12-22_14h24.46.803,sert_artemis_2025.2.3,2025.2.3,MacIntel,59.95203837,,,,,,,,,,,,,,,,,,,,,,,,,,,,,,,,,,,,,,,,,,,,,,,,,,,,,,,,,,,,,,,,,,,,,,,,,,,,,,,,100.598,102.644,"[""3""]",[1.543999999999997],[null],[],[],[],[],[],[],[],102.644,103.193,0,0.549,103.193,0,30,30,30,1,objects,lethal,2,0.55,0.15,1.9,images/Lethal_Razor_Blue_Rect.png,images/Safe_BearHug_Blue_Rhom.png,images/Lethal_Gun_1_Orange_Rhom.png,,
,,,,,,,,,,,,,,,,,,sert_test_2,,2025-12-22_14h24.46.803,sert_artemis_2025.2.3,2025.2.3,MacIntel,59.95203837,,,,,,,,,,,,,,,,,,,,,,,,,,,,,,,,,,,,,,,,,,,,,,,,,,,,,,,,,,,,,,,,,,,,,,,,,,,,,,,,103.196,105.244,"[""2""]",[1.6839999999999975],[null],[],[],[],[],[],[],[],105.244,105.793,0,0.549,105.793,0,31,31,31,1,objects,lethal,2,0.55,0.15,1.9,images/Lethal_Poison_Blue_Oval.png,images/Safe_LifeVest_Orange_Oval.png,images/Lethal_Razor_Orange_Rect.png,,
,,,,,,,,,,,,,,,,,,sert_test_2,,2025-12-22_14h24.46.803,sert_artemis_2025.2.3,2025.2.3,MacIntel,59.95203837,,,,,,,,,,,,,,,,,,,,,,,,,,,,,,,,,,,,,,,,,,,,,,,,,,,,,,,,,,,,,,,,,,,,,,,,,,,,,,,,105.794,107.844,"[""2""]",[1.6199999999999903],[null],[],[],[],[],[],[],[],107.844,108.194,0,0.35,108.194,0,32,32,32,1,objects,lethal,2,0.35,0.15,1.9,images/Lethal_Gun_1_Orange_Rhom.png,images/Safe_Extinguisher_Blue_Rhom.png,images/Lethal_Knife_Blue_Rect.png,,
,,,,,,,,,,,,,,,,,,sert_test_2,,2025-12-22_14h24.46.803,sert_artemis_2025.2.3,2025.2.3,MacIntel,59.95203837,,,,,,,,,,,,,,,,,,,,,,,,,,,,,,,,,,,,,,,,,,,,,,,,,,,,,,,,,,,,,,,,,,,,,,,,,,,,,,,,108.195,110.244,"[""1""]",[1.4840000000000089],[null],[],[],[],[],[],[],[],110.244,110.794,0,0.55,110.794,0,33,33,33,1,objects,lethal,1,0.55,0.15,1.9,images/Safe_LifeVest_Blue_Oval.png,images/Lethal_Pills_Orange_Oval.png,images/Lethal_Gun_1_Blue_Rect.png,,
,,,,,,,,,,,,,,,,,,sert_test_2,,2025-12-22_14h24.46.803,sert_artemis_2025.2.3,2025.2.3,MacIntel,59.95203837,,,,,,,,,,,,,,,,,,,,,,,,,,,,,,,,,,,,,,,,,,,,,,,,,,,,,,,,,,,,,,,,,,,,,,,,,,,,,,,,110.796,112.844,"[""1""]",[1.6740000000000066],[null],[],[],[],[],[],[],[],112.844,113.294,0,0.45,113.294,0,34,34,34,1,objects,lethal,1,0.45,0.15,1.9,images/Safe_BearHug_Orange_Rect.png,images/Lethal_Noose_1_Orange_Oval.png,images/Lethal_Poison_Blue_Rect.png,,
,,,,,,,,,,,,,,,,,,sert_test_2,,2025-12-22_14h24.46.803,sert_artemis_2025.2.3,2025.2.3,MacIntel,59.95203837,,,,,,,,,,,,,,,,,,,,,,,,,,,,,,,,,,,,,,,,,,,,,,,,,,,,,,,,,,,,,,,,,,,,,,,,,,,,,,,,113.295,115.344,"[""3""]",[1.8859999999999957],[null],[],[],[],[],[],[],[],115.344,115.694,0,0.35,115.694,0,35,35,35,1,objects,lethal,3,0.35,0.15,1.9,images/Lethal_Pills_Blue_Rect.png,images/Lethal_Knife_Orange_Rhom.png,images/Safe_Goggles_Blue_Rhom.png,,
,,,,,,,,,,,,,,,,,,sert_test_2,,2025-12-22_14h24.46.803,sert_artemis_2025.2.3,2025.2.3,MacIntel,59.95203837,,,,,,,,,,,,,,,,,,,,,,,,,,,,,,,,,,,,,,,,,,,,,,,,,,,,,,,,,,,,,,,,,,,,,,,,,,,,,,,,115.696,117.743,"[""1""]",[1.3340000000000032],[null],[],[],[],[],[],[],[],117.744,118.194,0,0.45,118.194,0,36,36,36,1,objects,lethal,1,0.45,0.15,1.9,images/Safe_BearHug_Blue_Oval.png,images/Lethal_Poison_Blue_Rect.png,images/Lethal_Noose_1_Orange_Oval.png,,
,,,,,,,,,,,,,,,,,,sert_test_2,,2025-12-22_14h24.46.803,sert_artemis_2025.2.3,2025.2.3,MacIntel,59.95203837,,,,,,,,,,,,,,,,,,,,,,,,,,,,,,,,,,,,,,,,,,,,,,,,,,,,,,,,,,,,,,,,,,,,,,,,,,,,,,,,118.196,120.244,"[""1""]",[1.5670000000000073],[null],[],[],[],[],[],[],[],120.244,120.594,0,0.35,120.594,0,37,37,37,1,objects,lethal,1,0.35,0.15,1.9,images/Safe_LifeVest_Orange_Rect.png,images/Lethal_Knife_Orange_Oval.png,images/Lethal_Pills_Blue_Rect.png,,
,,,,,,,,,,,,,,,,,,sert_test_2,,2025-12-22_14h24.46.803,sert_artemis_2025.2.3,2025.2.3,MacIntel,59.95203837,,,,,,,,,,,,,,,,,,,,,,,,,,,,,,,,,,,,,,,,,,,,,,,,,,,,,,,,,,,,,,,,,,,,,,,,,,,,,,,,120.596,122.646,"[""1""]",[1.4050000000000011],[null],[],[],[],[],[],[],[],122.647,122.994,0.001,0.346,122.994,0,38,38,38,1,objects,lethal,1,0.35,0.15,1.9,images/Safe_Extinguisher_Orange_Rhom.png,images/Lethal_Gun_1_Orange_Rect.png,images/Lethal_Razor_Blue_Rhom.png,,
,,,,,,,,,,,,,,,,,,sert_test_2,,2025-12-22_14h24.46.803,sert_artemis_2025.2.3,2025.2.3,MacIntel,59.95203837,,,,,,,,,,,,,,,,,,,,,,,,,,,,,,,,,,,,,,,,,,,,,,,,,,,,,,,,,,,,,,,,,,,,,,,,,,,,,,,,123,125.045,"[""2""]",[1.563999999999993],[null],[],[],[],[],[],[],[],125.045,125.394,0,0.349,125.394,0,39,39,39,1,objects,lethal,2,0.35,0.15,1.9,images/Lethal_Poison_Blue_Oval.png,images/Safe_SeatBelt_Orange_Oval.png,images/Lethal_Knife_Orange_Rect.png,,
,,,,,,,,,,,,,,,,,,sert_test_2,,2025-12-22_14h24.46.803,sert_artemis_2025.2.3,2025.2.3,MacIntel,59.95203837,,,,,,,,,,,,,,,,,,,,,,,,,,,,,,,,,,,,,,,,,,,,,,,,,,,,,,,,,,,,,,,,,,,,,,,,,,,,,,,,125.401,127.444,"[""3""]",[1.6910000000000025],[null],[],[],[],[],[],[],[],127.444,127.894,0,0.45,127.894,0,40,40,40,1,objects,shape,3,0.45,0.15,1.9,images/Inert_Orange_Orange_Rect.png,images/Lethal_Poison_Blue_Rect.png,images/Inert_Hairbrush_Blue_Oval.png,,
,,,,,,,,,,,,,,,,,,sert_test_2,,2025-12-22_14h24.46.803,sert_artemis_2025.2.3,2025.2.3,MacIntel,59.95203837,,,,,,,,,,,,,,,,,,,,,,,,,,,,,,,,,,,,,,,,,,,,,,,,,,,,,,,,,,,,,,,,,,,,,,,,,,,,,,,,127.897,129.944,"[""3""]",[1.170000000000016],[null],[],[],[],[],[],[],[],129.944,130.494,0,0.55,130.494,0,41,41,41,1,objects,shape,3,0.55,0.15,1.9,images/Lethal_Poison_Blue_Rhom.png,images/Safe_Extinguisher_Orange_Rhom.png,images/Lethal_Knife_Orange_Rect.png,,
,,,,,,,,,,,,,,,,,,sert_test_2,,2025-12-22_14h24.46.803,sert_artemis_2025.2.3,2025.2.3,MacIntel,59.95203837,,,,,,,,,,,,,,,,,,,,,,,,,,,,,,,,,,,,,,,,,,,,,,,,,,,,,,,,,,,,,,,,,,,,,,,,,,,,,,,,130.499,132.544,"[""2""]",[1.8940000000000055],[null],[],[],[],[],[],[],[],132.544,133.094,0,0.55,133.094,0,42,42,42,1,objects,lethal,2,0.55,0.15,1.9,images/Inert_Book_Blue_Oval.png,images/Lethal_Gun_1_Orange_Oval.png,images/Inert_Hat_Orange_Rhom.png,,
,,,,,,,,,,,,,,,,,,sert_test_2,,2025-12-22_14h24.46.803,sert_artemis_2025.2.3,2025.2.3,MacIntel,59.95203837,,,,,,,,,,,,,,,,,,,,,,,,,,,,,,,,,,,,,,,,,,,,,,,,,,,,,,,,,,,,,,,,,,,,,,,,,,,,,,,,133.098,135.144,"[""1""]",[0.9560000000000173],[null],[],[],[],[],[],[],[],135.144,135.494,0,0.35,135.494,0,43,43,43,1,objects,color,1,0.35,0.15,1.9,images/Lethal_Gun_1_Orange_Rect.png,images/Lethal_Poison_Blue_Oval.png,images/Inert_Camera_Blue_Rect.png,,
,,,,,,,,,,,,,,,,,,sert_test_2,,2025-12-22_14h24.46.803,sert_artemis_2025.2.3,2025.2.3,MacIntel,59.95203837,,,,,,,,,,,,,,,,,,,,,,,,,,,,,,,,,,,,,,,,,,,,,,,,,,,,,,,,,,,,,,,,,,,,,,,,,,,,,,,,135.498,137.545,"[""1""]",[1.9569999999999936],[null],[],[],[],[],[],[],[],137.545,137.895,0,0.349,137.895,0,44,44,44,1,objects,lethal,1,0.35,0.15,1.9,images/Inert_Book_Orange_Rect.png,images/Lethal_Noose_1_Blue_Rect.png,images/Lethal_Razor_Orange_Rhom.png,,
,,,,,,,,,,,,,,,,,,sert_test_2,,2025-12-22_14h24.46.803,sert_artemis_2025.2.3,2025.2.3,MacIntel,59.95203837,,,,,,,,,,,,,,,,,,,,,,,,,,,,,,,,,,,,,,,,,,,,,,,,,,,,,,,,,,,,,,,,,,,,,,,,,,,,,,,,137.897,139.944,"[""3""]",[1.924999999999983],[null],[],[],[],[],[],[],[],139.945,140.494,0,0.549,140.494,0,45,45,45,1,objects,shape,3,0.55,0.15,1.9,images/Inert_Hairbrush_Blue_Rhom.png,images/Lethal_Razor_Orange_Rhom.png,images/Inert_Strawberry_Orange_Rect.png,,
,,,,,,,,,,,,,,,,,,sert_test_2,,2025-12-22_14h24.46.803,sert_artemis_2025.2.3,2025.2.3,MacIntel,59.95203837,,,,,,,,,,,,,,,,,,,,,,,,,,,,,,,,,,,,,,,,,,,,,,,,,,,,,,,,,,,,,,,,,,,,,,,,,,,,,,,,140.499,142.544,"[""3""]",[1.7060000000000173],[null],[],[],[],[],[],[],[],142.544,142.995,0,0.451,142.995,0,46,46,46,1,objects,lethal,1,0.45,0.15,1.9,images/Lethal_Noose_1_Orange_Oval.png,images/Inert_Camera_Orange_Rect.png,images/Inert_Book_Blue_Oval.png,,
,,,,,,,,,,,,,,,,,,sert_test_2,,2025-12-22_14h24.46.803,sert_artemis_2025.2.3,2025.2.3,MacIntel,59.95203837,,,,,,,,,,,,,,,,,,,,,,,,,,,,,,,,,,,,,,,,,,,,,,,,,,,,,,,,,,,,,,,,,,,,,,,,,,,,,,,,142.998,145.044,"[""3""]",[1.1059999999999945],[null],[],[],[],[],[],[],[],145.044,145.595,0,0.551,145.595,0,47,47,47,1,objects,color,3,0.55,0.15,1.9,images/Safe_LifeVest_Orange_Rhom.png,images/Lethal_Pills_Orange_Rect.png,images/Safe_SeatBelt_Blue_Rect.png,,
,,,,,,,,,,,,,,,,,,sert_test_2,,2025-12-22_14h24.46.803,sert_artemis_2025.2.3,2025.2.3,MacIntel,59.95203837,,,,,,,,,,,,,,,,,,,,,,,,,,,,,,,,,,,,,,,,,,,,,,,,,,,,,,,,,,,,,,,,,,,,,,,,,,,,,,,,145.598,147.645,"[""3""]",[1.7450000000000045],[null],[],[],[],[],[],[],[],147.645,148.194,0,0.549,148.194,0,48,48,48,1,objects,lethal,3,0.55,0.15,1.9,images/Lethal_Gun_1_Blue_Oval.png,images/Lethal_Poison_Orange_Rhom.png,images/Inert_Camera_Blue_Rhom.png,,
,,,,,,,,,,,,,,,,,,sert_test_2,,2025-12-22_14h24.46.803,sert_artemis_2025.2.3,2025.2.3,MacIntel,59.95203837,,,,,,,,,,,,,,,,,,,,,,,,,,,,,,,,,,,,,,,,,,,,,,,,,,,,,,,,,,,,,,,,,,,,,,,,,,,,,,,,148.198,150.244,"[""3""]",[1.454999999999984],[null],[],[],[],[],[],[],[],150.244,150.595,0,0.351,150.595,0,49,49,49,1,objects,shape,3,0.35,0.15,1.9,images/Lethal_Pills_Blue_Rhom.png,images/Inert_Hat_Orange_Rhom.png,images/Inert_Strawberry_Blue_Rect.png,,
,,,,,,,,,,,,,,,,,,sert_test_2,,2025-12-22_14h24.46.803,sert_artemis_2025.2.3,2025.2.3,MacIntel,59.95203837,,,,,,,,,,,,,,,,,,,,,,,,,,,,,,,,,,,,,,,,,,,,,,,,,,,,,,,,,,,,,,,,,,,,,,,,,,,,,,,,150.598,152.645,"[""2""]",[1.1580000000000155],[null],[],[],[],[],[],[],[],152.645,152.995,0,0.35,152.995,0,50,50,50,1,objects,color,2,0.35,0.15,1.9,images/Lethal_Noose_1_Orange_Rect.png,images/Safe_Goggles_Blue_Rect.png,images/Safe_Buoy_Orange_Oval.png,,
,,,,,,,,,,,,,,,,,,sert_test_2,,2025-12-22_14h24.46.803,sert_artemis_2025.2.3,2025.2.3,MacIntel,59.95203837,,,,,,,,,,,,,,,,,,,,,,,,,,,,,,,,,,,,,,,,,,,,,,,,,,,,,,,,,,,,,,,,,,,,,,,,,,,,,,,,152.998,155.048,"[""3""]",[1.0840000000000032],[null],[],[],[],[],[],[],[],155.048,155.495,0,0.446,155.495,0,51,51,51,1,objects,color,3,0.45,0.15,1.9,images/Lethal_Knife_Blue_Rect.png,images/Inert_Camera_Blue_Rhom.png,images/Lethal_Noose_1_Orange_Rhom.png,,
,,,,,,,,,,,,,,,,,,sert_test_2,,2025-12-22_14h24.46.803,sert_artemis_2025.2.3,2025.2.3,MacIntel,59.95203837,,,,,,,,,,,,,,,,,,,,,,,,,,,,,,,,,,,,,,,,,,,,,,,,,,,,,,,,,,,,,,,,,,,,,,,,,,,,,,,,155.501,157.545,"[""3""]",[1.09699999999998],[null],[],[],[],[],[],[],[],157.546,157.995,0,0.448,157.995,0,52,52,52,1,objects,color,3,0.45,0.15,1.9,images/Safe_LifeVest_Orange_Oval.png,images/Lethal_Razor_Orange_Rect.png,images/Safe_Extinguisher_Blue_Rect.png,,
,,,,,,,,,,,,,,,,,,sert_test_2,,2025-12-22_14h24.46.803,sert_artemis_2025.2.3,2025.2.3,MacIntel,59.95203837,,,,,,,,,,,,,,,,,,,,,,,,,,,,,,,,,,,,,,,,,,,,,,,,,,,,,,,,,,,,,,,,,,,,,,,,,,,,,,,,157.998,160.045,"[""3""]",[1.1980000000000075],[null],[],[],[],[],[],[],[],160.045,160.595,0,0.55,160.595,0,53,53,53,1,objects,color,3,0.55,0.15,1.9,images/Safe_Buoy_Blue_Rhom.png,images/Lethal_Pills_Blue_Rect.png,images/Safe_BearHug_Orange_Rect.png,,
,,,,,,,,,,,,,,,,,,sert_test_2,,2025-12-22_14h24.46.803,sert_artemis_2025.2.3,2025.2.3,MacIntel,59.95203837,,,,,,,,,,,,,,,,,,,,,,,,,,,,,,,,,,,,,,,,,,,,,,,,,,,,,,,,,,,,,,,,,,,,,,,,,,,,,,,,160.598,162.645,"[""2""]",[1.0859999999999843],[null],[],[],[],[],[],[],[],162.646,163.195,0,0.548,163.195,0,54,54,54,1,objects,color,2,0.55,0.15,1.9,images/Safe_LifeVest_Orange_Oval.png,images/Safe_BearHug_Blue_Rhom.png,images/Lethal_Gun_1_Orange_Rhom.png,,
,,,,,,,,,,,,,,,,,,sert_test_2,,2025-12-22_14h24.46.803,sert_artemis_2025.2.3,2025.2.3,MacIntel,59.95203837,,,,,,,,,,,,,,,,,,,,,,,,,,,,,,,,,,,,,,,,,,,,,,,,,,,,,,,,,,,,,,,,,,,,,,,,,,,,,,,,163.197,165.246,"[""2""]",[1.1529999999999916],[null],[],[],[],[],[],[],[],165.246,165.695,0,0.449,165.695,0,55,55,55,1,objects,color,2,0.45,0.15,1.9,images/Lethal_Knife_Blue_Rect.png,images/Safe_Extinguisher_Orange_Rect.png,images/Safe_LifeVest_Blue_Rhom.png,,
,,,,,,,,,,,,,,,,,,sert_test_2,,2025-12-22_14h24.46.803,sert_artemis_2025.2.3,2025.2.3,MacIntel,59.95203837,,,,,,,,,,,,,,,,,,,,,,,,,,,,,,,,,,,,,,,,,,,,,,,,,,,,,,,,,,,,,,,,,,,,,,,,,,,,,,,,165.697,167.745,"[""2""]",[0.9350000000000023],[null],[],[],[],[],[],[],[],167.745,168.295,0,0.55,168.295,0,56,56,56,1,objects,color,2,0.55,0.15,1.9,images/Lethal_Razor_Blue_Rect.png,images/Safe_Buoy_Orange_Rect.png,images/Safe_SeatBelt_Blue_Rhom.png,,
,,,,,,,,,,,,,,,,,,sert_test_2,,2025-12-22_14h24.46.803,sert_artemis_2025.2.3,2025.2.3,MacIntel,59.95203837,,,,,,,,,,,,,,,,,,,,,,,,,,,,,,,,,,,,,,,,,,,,,,,,,,,,,,,,,,,,,,,,,,,,,,,,,,,,,,,,168.298,170.346,"[""3""]",[1.0339999999999918],[null],[],[],[],[],[],[],[],170.346,170.695,0,0.349,170.695,0,57,57,57,1,objects,color,3,0.35,0.15,1.9,images/Lethal_Pills_Orange_Rhom.png,images/Inert_Strawberry_Orange_Oval.png,images/Inert_Book_Blue_Rhom.png,,
,,,,,,,,,,,,,,,,,,sert_test_2,,2025-12-22_14h24.46.803,sert_artemis_2025.2.3,2025.2.3,MacIntel,59.95203837,,,,,,,,,,,,,,,,,,,,,,,,,,,,,,,,,,,,,,,,,,,,,,,,,,,,,,,,,,,,,,,,,,,,,,,,,,,,,,,,170.697,172.746,"[""3""]",[0.9830000000000041],[null],[],[],[],[],[],[],[],172.746,173.195,0,0.449,173.195,0,58,58,58,1,objects,color,3,0.45,0.15,1.9,images/Safe_SeatBelt_Orange_Oval.png,images/Lethal_Gun_1_Orange_Rhom.png,images/Safe_Buoy_Blue_Rhom.png,,
,,,,,,,,,,,,,,,,,,sert_test_2,,2025-12-22_14h24.46.803,sert_artemis_2025.2.3,2025.2.3,MacIntel,59.95203837,,,,,,,,,,,,,,,,,,,,,,,,,,,,,,,,,,,,,,,,,,,,,,,,,,,,,,,,,,,,,,,,,,,,,,,,,,,,,,,,173.198,175.245,"[""3""]",[1.0669999999999789],[null],[],[],[],[],[],[],[],175.245,175.796,0,0.55,175.796,0,59,59,59,1,objects,color,3,0.55,0.15,1.9,images/Inert_Book_Blue_Rhom.png,images/Lethal_Knife_Blue_Rect.png,images/Inert_Hairbrush_Orange_Rect.png,,
,,,,,,,,,,,,,,,,,,sert_test_2,,2025-12-22_14h24.46.803,sert_artemis_2025.2.3,2025.2.3,MacIntel,59.95203837,,,,,,,,,,,,,,,,,,,,,,,,,,,,,,,,,,,,,,,,,,,,,,,,,,,,,,,,,,,,,,,,,,,,,,,,,,,,,,,,175.801,177.846,"[""3""]",[1.9159999999999968],[null],[],[],[],[],[],[],[],177.846,178.395,0,0.549,178.396,0,60,60,60,1,objects,shape,3,0.55,0.15,1.9,images/Safe_LifeVest_Blue_Rhom.png,images/Lethal_Pills_Orange_Rhom.png,images/Safe_BearHug_Orange_Oval.png,,
,,,,,,,,,,,,,,,,,,sert_test_2,,2025-12-22_14h24.46.803,sert_artemis_2025.2.3,2025.2.3,MacIntel,59.95203837,,,,,,,,,,,,,,,,,,,,,,,,,,,,,,,,,,,,,,,,,,,,,,,,,,,,,,,,,,,,,,,,,,,,,,,,,,,,,,,,178.397,180.445,"[""2""]",[1.4000000000000057],[null],[],[],[],[],[],[],[],180.446,180.996,0,0.549,180.996,0,61,61,61,1,objects,shape,2,0.55,0.15,1.9,images/Safe_Extinguisher_Orange_Oval.png,images/Safe_LifeVest_Blue_Rect.png,images/Lethal_Knife_Blue_Oval.png,,
,,,,,,,,,,,,,,,,,,sert_test_2,,2025-12-22_14h24.46.803,sert_artemis_2025.2.3,2025.2.3,MacIntel,59.95203837,,,,,,,,,,,,,,,,,,,,,,,,,,,,,,,,,,,,,,,,,,,,,,,,,,,,,,,,,,,,,,,,,,,,,,,,,,,,,,,,180.998,183.046,"[""2""]",[1.399000000000001],[null],[],[],[],[],[],[],[],183.046,183.496,0,0.45,183.496,0,62,62,62,1,objects,shape,2,0.45,0.15,1.9,images/Inert_Hat_Blue_Rhom.png,images/Lethal_Noose_1_Blue_Rect.png,images/Lethal_Poison_Orange_Rhom.png,,
,,,,,,,,,,,,,,,,,,sert_test_2,,2025-12-22_14h24.46.803,sert_artemis_2025.2.3,2025.2.3,MacIntel,59.95203837,,,,,,,,,,,,,,,,,,,,,,,,,,,,,,,,,,,,,,,,,,,,,,,,,,,,,,,,,,,,,,,,,,,,,,,,,,,,,,,,183.498,185.546,"[""2""]",[0.8569999999999993],[null],[],[],[],[],[],[],[],185.546,185.996,0,0.45,185.996,0,63,63,63,1,objects,color,2,0.45,0.15,1.9,images/Lethal_Razor_Orange_Rect.png,images/Inert_Camera_Blue_Rect.png,images/Inert_Book_Orange_Oval.png,,
,,,,,,,,,,,,,,,,,,sert_test_2,,2025-12-22_14h24.46.803,sert_artemis_2025.2.3,2025.2.3,MacIntel,59.95203837,,,,,,,,,,,,,,,,,,,,,,,,,,,,,,,,,,,,,,,,,,,,,,,,,,,,,,,,,,,,,,,,,,,,,,,,,,,,,,,,185.998,188.046,"[""2""]",[0.8340000000000032],[null],[],[],[],[],[],[],[],188.046,188.599,0,0.549,188.599,0,64,64,64,1,objects,color,2,0.55,0.15,1.9,images/Lethal_Noose_1_Orange_Rect.png,images/Safe_Buoy_Blue_Rect.png,images/Safe_Extinguisher_Orange_Oval.png,,
,,,,,,,,,,,,,,,,,,sert_test_2,,2025-12-22_14h24.46.803,sert_artemis_2025.2.3,2025.2.3,MacIntel,59.95203837,,,,,,,,,,,,,,,,,,,,,,,,,,,,,,,,,,,,,,,,,,,,,,,,,,,,,,,,,,,,,,,,,,,,,,,,,,,,,,,,188.604,190.647,"[""3""]",[1.5320000000000107],[null],[],[],[],[],[],[],[],190.647,190.996,0,0.349,190.996,0,65,65,65,1,objects,color,3,0.35,0.15,1.9,images/Lethal_Pills_Blue_Oval.png,images/Safe_BearHug_Blue_Rhom.png,images/Safe_LifeVest_Orange_Oval.png,,
,,,,,,,,,,,,,,,,,,sert_test_2,,2025-12-22_14h24.46.803,sert_artemis_2025.2.3,2025.2.3,MacIntel,59.95203837,,,,,,,,,,,,,,,,,,,,,,,,,,,,,,,,,,,,,,,,,,,,,,,,,,,,,,,,,,,,,,,,,,,,,,,,,,,,,,,,191.006,193.046,"[""2""]",[1.3460000000000036],[null],[],[],[],[],[],[],[],193.047,193.596,0,0.549,193.596,0,66,66,66,1,objects,lethal,1,0.55,0.15,1.9,images/Lethal_Pills_Blue_Rect.png,images/Inert_Camera_Orange_Rect.png,images/Inert_Orange_Blue_Oval.png,,
,,,,,,,,,,,,,,,,,,sert_test_2,,2025-12-22_14h24.46.803,sert_artemis_2025.2.3,2025.2.3,MacIntel,59.95203837,,,,,,,,,,,,,,,,,,,,,,,,,,,,,,,,,,,,,,,,,,,,,,,,,,,,,,,,,,,,,,,,,,,,,,,,,,,,,,,,193.601,195.647,"[""3""]",[1.2099999999999795],[null],[],[],[],[],[],[],[],195.647,196.096,0,0.449,196.097,0,67,67,67,1,objects,color,3,0.45,0.15,1.9,images/Safe_Buoy_Blue_Oval.png,images/Lethal_Gun_1_Blue_Rhom.png,images/Safe_Goggles_Orange_Rhom.png,,
,,,,,,,,,,,,,,,,,,sert_test_2,,2025-12-22_14h24.46.803,sert_artemis_2025.2.3,2025.2.3,MacIntel,59.95203837,,,,,,,,,,,,,,,,,,,,,,,,,,,,,,,,,,,,,,,,,,,,,,,,,,,,,,,,,,,,,,,,,,,,,,,,,,,,,,,,196.099,198.146,"[""3""]",[1.3810000000000002],[null],[],[],[],[],[],[],[],198.147,198.496,0,0.349,198.497,0,68,68,68,1,objects,color,3,0.35,0.15,1.9,images/Inert_Orange_Blue_Rect.png,images/Lethal_Noose_1_Blue_Oval.png,images/Lethal_Gun_1_Orange_Rect.png,,
,,,,,,,,,,,,,,,,,,sert_test_2,,2025-12-22_14h24.46.803,sert_artemis_2025.2.3,2025.2.3,MacIntel,59.95203837,,,,,,,,,,,,,,,,,,,,,,,,,,,,,,,,,,,,,,,,,,,,,,,,,,,,,,,,,,,,,,,,,,,,,,,,,,,,,,,,198.503,200.546,"[""3""]",[1.6059999999999945],[null],[],[],[],[],[],[],[],200.546,201.096,0,0.55,201.096,0,69,69,69,1,objects,shape,3,0.55,0.15,1.9,images/Safe_Extinguisher_Blue_Rhom.png,images/Lethal_Razor_Orange_Rhom.png,images/Safe_Goggles_Orange_Rect.png,,
,,,,,,,,,,,,,,,,,,sert_test_2,,2025-12-22_14h24.46.803,sert_artemis_2025.2.3,2025.2.3,MacIntel,59.95203837,,,,,,,,,,,,,,,,,,,,,,,,,,,,,,,,,,,,,,,,,,,,,,,,,,,,,,,,,,,,,,,,,,,,,,,,,,,,,,,,201.099,203.147,"[""2""]",[1.6340000000000146],[null],[],[],[],[],[],[],[],203.147,203.596,0,0.449,203.596,0,70,70,70,1,objects,shape,2,0.45,0.15,1.9,images/Lethal_Noose_1_Orange_Oval.png,images/Lethal_Pills_Orange_Rhom.png,images/Inert_Hairbrush_Blue_Oval.png,,
,,,,,,,,,,,,,,,,,,sert_test_2,,2025-12-22_14h24.46.803,sert_artemis_2025.2.3,2025.2.3,MacIntel,59.95203837,,,,,,,,,,,,,,,,,,,,,,,,,,,,,,,,,,,,,,,,,,,,,,,,,,,,,,,,,,,,,,,,,,,,,,,,,,,,,,,,203.598,205.647,"[""1""]",[1.9669999999999845],[null],[],[],[],[],[],[],[],205.647,206.196,0,0.549,206.196,0,71,71,71,1,objects,shape,1,0.55,0.15,1.9,images/Safe_Buoy_Orange_Oval.png,images/Safe_BearHug_Blue_Rhom.png,images/Lethal_Noose_1_Orange_Rhom.png,,
,,,,,,,,,,,,,,,,,,sert_test_2,,2025-12-22_14h24.46.803,sert_artemis_2025.2.3,2025.2.3,MacIntel,59.95203837,,,,,,,,,,,,,,,,,,,,,,,,,,,,,,,,,,,,,,,,,,,,,,,,,,,,,,,,,,,,,,,,,,,,,,,,,,,,,,,,206.199,208.246,"[""1""]",[1.3179999999999836],[null],[],[],[],[],[],[],[],208.246,208.596,0,0.35,208.596,0,72,72,72,1,objects,shape,1,0.35,0.15,1.9,images/Safe_Goggles_Orange_Rhom.png,images/Lethal_Knife_Orange_Oval.png,images/Safe_Buoy_Blue_Oval.png,,
,,,,,,,,,,,,,,,,,,sert_test_2,,2025-12-22_14h24.46.803,sert_artemis_2025.2.3,2025.2.3,MacIntel,59.95203837,,,,,,,,,,,,,,,,,,,,,,,,,,,,,,,,,,,,,,,,,,,,,,,,,,,,,,,,,,,,,,,,,,,,,,,,,,,,,,,,208.597,210.647,"[""2""]",[1.5840000000000032],[null],[],[],[],[],[],[],[],210.647,211.196,0,0.549,211.196,0,73,73,73,1,objects,shape,2,0.55,0.15,1.9,images/Inert_Hat_Blue_Rect.png,images/Inert_Strawberry_Orange_Rhom.png,images/Lethal_Poison_Orange_Rect.png,,
,,,,,,,,,,,,,,,,,,sert_test_2,,2025-12-22_14h24.46.803,sert_artemis_2025.2.3,2025.2.3,MacIntel,59.95203837,,,,,,,,,,,,,,,,,,,,,,,,,,,,,,,,,,,,,,,,,,,,,,,,,,,,,,,,,,,,,,,,,,,,,,,,,,,,,,,,211.199,213.246,"[""1""]",[1.275999999999982],[null],[],[],[],[],[],[],[],213.246,213.698,0,0.452,213.698,0,74,74,74,1,objects,shape,1,0.45,0.15,1.9,images/Safe_Goggles_Orange_Oval.png,images/Lethal_Poison_Orange_Rect.png,images/Safe_SeatBelt_Blue_Rect.png,,
,,,,,,,,,,,,,,,,,,sert_test_2,,2025-12-22_14h24.46.803,sert_artemis_2025.2.3,2025.2.3,MacIntel,59.95203837,,,,,,,,,,,,,,,,,,,,,,,,,,,,,,,,,,,,,,,,,,,,,,,,,,,,,,,,,,,,,,,,,,,,,,,,,,,,,,,,213.699,215.746,"[""3""]",[1.3220000000000027],[null],[],[],[],[],[],[],[],215.747,216.096,0,0.349,216.096,0,75,75,75,1,objects,shape,3,0.35,0.15,1.9,images/Lethal_Knife_Blue_Oval.png,images/Inert_Hairbrush_Orange_Oval.png,images/Inert_Camera_Blue_Rhom.png,,
,,,,,,,,,,,,,,,,,,sert_test_2,,2025-12-22_14h24.46.803,sert_artemis_2025.2.3,2025.2.3,MacIntel,59.95203837,,,,,,,,,,,,,,,,,,,,,,,,,,,,,,,,,,,,,,,,,,,,,,,,,,,,,,,,,,,,,,,,,,,,,,,,,,,,,,,,216.099,218.145,"[""2""]",[1.4700000000000273],[null],[],[],[],[],[],[],[],218.145,218.696,0,0.551,218.696,0,76,76,76,1,objects,shape,2,0.55,0.15,1.9,images/Inert_Strawberry_Orange_Oval.png,images/Lethal_Poison_Orange_Rect.png,images/Lethal_Razor_Blue_Oval.png,,
,,,,,,,,,,,,,,,,,,sert_test_2,,2025-12-22_14h24.46.803,sert_artemis_2025.2.3,2025.2.3,MacIntel,59.95203837,,,,,,,,,,,,,,,,,,,,,,,,,,,,,,,,,,,,,,,,,,,,,,,,,,,,,,,,,,,,,,,,,,,,,,,,,,,,,,,,218.7,220.747,"[""3""]",[1.3660000000000139],[null],[],[],[],[],[],[],[],220.747,221.097,0,0.349,221.097,0,77,77,77,1,objects,shape,3,0.35,0.15,1.9,images/Safe_Buoy_Orange_Rect.png,images/Lethal_Knife_Blue_Rect.png,images/Safe_Extinguisher_Blue_Oval.png,,
,,,,,,,,,,,,,,,,,,sert_test_2,,2025-12-22_14h24.46.803,sert_artemis_2025.2.3,2025.2.3,MacIntel,59.95203837,,,,,,,,,,,,,,,,,,,,,,,,,,,,,,,,,,,,,,,,,,,,,,,,,,,,,,,,,,,,,,,,,,,,,,,,,,,,,,,,221.099,223.149,"[""3""]",[1.4720000000000084],[null],[],[],[],[],[],[],[],223.151,223.697,0,0.546,223.697,0,78,78,78,1,objects,shape,3,0.55,0.15,1.9,images/Lethal_Pills_Blue_Rect.png,images/Safe_SeatBelt_Orange_Rect.png,images/Safe_Goggles_Blue_Rhom.png,,
,,,,,,,,,,,,,,,,,,sert_test_2,,2025-12-22_14h24.46.803,sert_artemis_2025.2.3,2025.2.3,MacIntel,59.95203837,,,,,,,,,,,,,,,,,,,,,,,,,,,,,,,,,,,,,,,,,,,,,,,,,,,,,,,,,,,,,,,,,,,,,,,,,,,,,,,,223.704,225.75,"[""1""]",[1.3149999999999977],[null],[],[],[],[],[],[],[],225.75,226.297,0,0.547,226.297,0,79,79,79,1,objects,shape,1,0.55,0.15,1.9,images/Safe_SeatBelt_Orange_Rhom.png,images/Lethal_Noose_1_Orange_Oval.png,images/Lethal_Knife_Blue_Oval.png,,
,,,,,,,,,,,,,,,,,,sert_test_2,,2025-12-22_14h24.46.803,sert_artemis_2025.2.3,2025.2.3,MacIntel,59.95203837,,,,,,,,,,,,,,,,,,,,,,,,,,,,,,,,,,,,,,,,,,,,,,,,,,,,,,,,,,,,,,,,,,,,,,,,,,,,,,,,226.301,228.347,"[""3""]",[1.0349999999999966],[null],[],[],[],[],[],[],[],228.347,228.797,0,0.45,228.797,0,80,80,80,1,objects,shape,3,0.45,0.15,1.9,images/Safe_Extinguisher_Blue_Rhom.png,images/Lethal_Poison_Orange_Rhom.png,images/Safe_SeatBelt_Orange_Oval.png,,
,,,,,,,,,,,,,,,,,,sert_test_2,,2025-12-22_14h24.46.803,sert_artemis_2025.2.3,2025.2.3,MacIntel,59.95203837,,,,,,,,,,,,,,,,,,,,,,,,,,,,,,,,,,,,,,,,,,,,,,,,,,,,,,,,,,,,,,,,,,,,,,,,,,,,,,,,228.799,230.847,"[""2""]",[1.4659999999999798],[null],[],[],[],[],[],[],[],230.848,231.197,0,0.349,231.198,0,81,81,81,1,objects,shape,2,0.35,0.15,1.9,images/Lethal_Razor_Orange_Oval.png,images/Safe_Buoy_Orange_Rect.png,images/Safe_BearHug_Blue_Oval.png,,
,,,,,,,,,,,,,,,,,,sert_test_2,,2025-12-22_14h24.46.803,sert_artemis_2025.2.3,2025.2.3,MacIntel,59.95203837,,,,,,,,,,,,,,,,,,,,,,,,,,,,,,,,,,,,,,,,,,,,,,,,,,,,,,,,,,,,,,,,,,,,,,,,,,,,,,,,231.204,233.247,"[""3""]",[1.252999999999986],[null],[],[],[],[],[],[],[],233.247,233.698,0,0.449,233.698,0,82,82,82,1,objects,color,3,0.45,0.15,1.9,images/Lethal_Noose_1_Orange_Rhom.png,images/Safe_Extinguisher_Orange_Rect.png,images/Safe_Goggles_Blue_Rhom.png,,
,,,,,,,,,,,,,,,,,,sert_test_2,,2025-12-22_14h24.46.803,sert_artemis_2025.2.3,2025.2.3,MacIntel,59.95203837,,,,,,,,,,,,,,,,,,,,,,,,,,,,,,,,,,,,,,,,,,,,,,,,,,,,,,,,,,,,,,,,,,,,,,,,,,,,,,,,233.699,235.747,"[""1""]",[1.3019999999999925],[null],[],[],[],[],[],[],[],235.747,236.197,0,0.45,236.197,0,83,83,83,1,objects,color,2,0.45,0.15,1.9,images/Inert_Orange_Blue_Oval.png,images/Inert_Book_Orange_Rhom.png,images/Lethal_Poison_Blue_Rhom.png,,
,,,,,,,,,,,,,,,,,,sert_test_2,,2025-12-22_14h24.46.803,sert_artemis_2025.2.3,2025.2.3,MacIntel,59.95203837,,,,,,,,,,,,,,,,,,,,,,,,,,,,,,,,,,,,,,,,,,,,,,,,,,,,,,,,,,,,,,,,,,,,,,,,,,,,,,,,236.201,238.247,"[""1""]",[1.7469999999999857],[null],[],[],[],[],[],[],[],238.247,238.697,0,0.45,238.697,0,84,84,84,1,objects,lethal,3,0.45,0.15,1.9,images/Inert_Hairbrush_Blue_Rect.png,images/Inert_Camera_Orange_Oval.png,images/Lethal_Pills_Blue_Oval.png,,
,,,,,,,,,,,,,,,,,,sert_test_2,,2025-12-22_14h24.46.803,sert_artemis_2025.2.3,2025.2.3,MacIntel,59.95203837,,,,,,,,,,,,,,,,,,,,,,,,,,,,,,,,,,,,,,,,,,,,,,,,,,,,,,,,,,,,,,,,,,,,,,,,,,,,,,,,238.7,240.747,"[""1""]",[1.8909999999999627],[null],[],[],[],[],[],[],[],240.748,241.097,0,0.348,241.097,0,85,85,85,1,objects,lethal,3,0.35,0.15,1.9,images/Lethal_Gun_1_Blue_Rect.png,images/Lethal_Pills_Orange_Rhom.png,images/Inert_Hat_Orange_Rect.png,,
,,,,,,,,,,,,,,,,,,sert_test_2,,2025-12-22_14h24.46.803,sert_artemis_2025.2.3,2025.2.3,MacIntel,59.95203837,,,,,,,,,,,,,,,,,,,,,,,,,,,,,,,,,,,,,,,,,,,,,,,,,,,,,,,,,,,,,,,,,,,,,,,,,,,,,,,,241.098,243.148,"[""3""]",[1.3079999999999927],[null],[],[],[],[],[],[],[],243.148,243.597,0,0.449,243.597,0,86,86,86,1,objects,lethal,2,0.45,0.15,1.9,images/Lethal_Pills_Blue_Oval.png,images/Inert_Orange_Orange_Oval.png,images/Lethal_Knife_Orange_Rhom.png,,
,,,,,,,,,,,,,,,,,,sert_test_2,,2025-12-22_14h24.46.803,sert_artemis_2025.2.3,2025.2.3,MacIntel,59.95203837,,,,,,,,,,,,,,,,,,,,,,,,,,,,,,,,,,,,,,,,,,,,,,,,,,,,,,,,,,,,,,,,,,,,,,,,,,,,,,,,243.598,245.647,,,,[],[],[],[],[],[],[],245.647,246.097,0,0.45,246.097,0,87,87,87,1,objects,shape,2,0.45,0.15,1.9,images/Safe_Buoy_Blue_Rect.png,images/Safe_LifeVest_Orange_Oval.png,images/Lethal_Poison_Orange_Rect.png,,
,,,,,,,,,,,,,,,,,,sert_test_2,,2025-12-22_14h24.46.803,sert_artemis_2025.2.3,2025.2.3,MacIntel,59.95203837,,,,,,,,,,,,,,,,,,,,,,,,,,,,,,,,,,,,,,,,,,,,,,,,,,,,,,,,,,,,,,,,,,,,,,,,,,,,,,,,246.101,248.147,"[""2""]",[1.524000000000001],[null],[],[],[],[],[],[],[],248.148,248.697,0,0.549,248.697,0,88,88,88,1,objects,color,2,0.55,0.15,1.9,images/Lethal_Gun_1_Blue_Rect.png,images/Inert_Strawberry_Orange_Oval.png,images/Lethal_Noose_1_Blue_Rhom.png,,
,,,,,,,,,,,,,,,,,,sert_test_2,,2025-12-22_14h24.46.803,sert_artemis_2025.2.3,2025.2.3,MacIntel,59.95203837,,,,,,,,,,,,,,,,,,,,,,,,,,,,,,,,,,,,,,,,,,,,,,,,,,,,,,,,,,,,,,,,,,,,,,,,,,,,,,,,248.698,250.747,"[""2""]",[1.5349999999999682],[null],[],[],[],[],[],[],[],250.748,251.097,0,0.349,251.097,0,89,89,89,1,objects,color,2,0.35,0.15,1.9,images/Safe_Buoy_Orange_Rhom.png,images/Safe_SeatBelt_Blue_Oval.png,images/Lethal_Pills_Orange_Oval.png,,
,,,,,,,,,,,,,,,,,,sert_test_2,,2025-12-22_14h24.46.803,sert_artemis_2025.2.3,2025.2.3,MacIntel,59.95203837,,,,,,,,,,,,,,,,,,,,,,,,,,,,,,,,,,,,,,,,,,,,,,,,,,,,,,,,,,,,,,,,,,,,,,,,,,,,,,,,251.1,253.148,"[""3""]",[1.6920000000000073],[null],[],[],[],[],[],[],[],253.148,253.598,0.001,0.45,253.598,0,90,90,90,1,objects,lethal,1,0.45,0.15,1.9,images/Lethal_Knife_Blue_Rhom.png,images/Inert_Camera_Orange_Rhom.png,images/Inert_Orange_Blue_Rect.png,,
,,,,,,,,,,,,,,,,,,sert_test_2,,2025-12-22_14h24.46.803,sert_artemis_2025.2.3,2025.2.3,MacIntel,59.95203837,,,,,,,,,,,,,,,,,,,,,,,,,,,,,,,,,,,,,,,,,,,,,,,,,,,,,,,,,,,,,,,,,,,,,,,,,,,,,,,,253.6,255.648,"[""3""]",[1.502999999999986],[null],[],[],[],[],[],[],[],255.649,256.198,0,0.549,256.198,0,91,91,91,1,objects,lethal,3,0.55,0.15,1.9,images/Safe_LifeVest_Orange_Rhom.png,images/Safe_BearHug_Blue_Oval.png,images/Lethal_Razor_Orange_Oval.png,,
,,,,,,,,,,,,,,,,,,sert_test_2,,2025-12-22_14h24.46.803,sert_artemis_2025.2.3,2025.2.3,MacIntel,59.95203837,,,,,,,,,,,,,,,,,,,,,,,,,,,,,,,,,,,,,,,,,,,,,,,,,,,,,,,,,,,,,,,,,,,,,,,,,,,,,,,,256.204,258.248,"[""3""]",[1.4630000000000223],[null],[],[],[],[],[],[],[],258.248,258.598,0,0.35,258.598,0,92,92,92,1,objects,lethal,2,0.35,0.15,1.9,images/Inert_Hat_Orange_Oval.png,images/Lethal_Poison_Blue_Oval.png,images/Inert_Hairbrush_Blue_Rhom.png,,
,,,,,,,,,,,,,,,,,,sert_test_2,,2025-12-22_14h24.46.803,sert_artemis_2025.2.3,2025.2.3,MacIntel,59.95203837,,,,,,,,,,,,,,,,,,,,,,,,,,,,,,,,,,,,,,,,,,,,,,,,,,,,,,,,,,,,,,,,,,,,,,,,,,,,,,,,258.601,260.648,"[""1""]",[1.6170000000000186],[null],[],[],[],[],[],[],[],260.649,260.998,0,0.349,260.998,0,93,93,93,1,objects,lethal,1,0.35,0.15,1.9,images/Lethal_Razor_Orange_Rhom.png,images/Inert_Camera_Blue_Rhom.png,images/Inert_Strawberry_Orange_Rect.png,,
,,,,,,,,,,,,,,,,,,sert_test_2,,2025-12-22_14h24.46.803,sert_artemis_2025.2.3,2025.2.3,MacIntel,59.95203837,,,,,,,,,,,,,,,,,,,,,,,,,,,,,,,,,,,,,,,,,,,,,,,,,,,,,,,,,,,,,,,,,,,,,,,,,,,,,,,,261.001,263.048,"[""2""]",[1.6190000000000282],[null],[],[],[],[],[],[],[],263.048,263.403,0,0.355,263.404,0,94,94,94,1,objects,lethal,2,0.35,0.15,1.9,images/Safe_SeatBelt_Blue_Oval.png,images/Lethal_Knife_Orange_Oval.png,images/Safe_Goggles_Orange_Rect.png,,
,,,,,,,,,,,,,,,,,,sert_test_2,,2025-12-22_14h24.46.803,sert_artemis_2025.2.3,2025.2.3,MacIntel,59.95203837,,,,,,,,,,,,,,,,,,,,,,,,,,,,,,,,,,,,,,,,,,,,,,,,,,,,,,,,,,,,,,,,,,,,,,,,,,,,,,,,263.404,265.449,"[""1""]",[1.7139999999999986],[null],[],[],[],[],[],[],[],265.449,265.998,0,0.549,265.998,0,95,95,95,1,objects,lethal,1,0.55,0.15,1.9,images/Lethal_Noose_1_Blue_Rect.png,images/Safe_LifeVest_Orange_Rect.png,images/Safe_Extinguisher_Blue_Oval.png,,
,,,,,,,,,,,,,,,,,,sert_test_2,,2025-12-22_14h24.46.803,sert_artemis_2025.2.3,2025.2.3,MacIntel,59.95203837,,,,,,,,,,,,,,,,,,,,,,,,,,,,,,,,,,,,,,,,,,,,,,,,,,,,,,,,,,,,,,,,,,,,,,,,,,,,,,,,266.001,268.048,"[""1""]",[1.5610000000000355],[null],[],[],[],[],[],[],[],268.048,268.499,0,0.451,268.499,0,96,96,96,1,objects,lethal,1,0.45,0.15,1.9,images/Lethal_Razor_Orange_Rect.png,images/Inert_Book_Blue_Rect.png,images/Inert_Orange_Orange_Rhom.png,,
,,,,,,,,,,,,,,,,,,sert_test_2,,2025-12-22_14h24.46.803,sert_artemis_2025.2.3,2025.2.3,MacIntel,59.95203837,,,,,,,,,,,,,,,,,,,,,,,,,,,,,,,,,,,,,,,,,,,,,,,,,,,,,,,,,,,,,,,,,,,,,,,,,,,,,,,,268.505,270.554,"[""1""]",[1.4329999999999927],[null],[],[],[],[],[],[],[],270.554,270.998,0,0.444,270.998,0,97,97,97,1,objects,lethal,1,0.45,0.15,1.9,images/Lethal_Poison_Blue_Rhom.png,images/Safe_Buoy_Orange_Rhom.png,images/Safe_LifeVest_Blue_Oval.png,,
,,,,,,,,,,,,,,,,,,sert_test_2,,2025-12-22_14h24.46.803,sert_artemis_2025.2.3,2025.2.3,MacIntel,59.95203837,,,,,,,,,,,,,,,,,,,,,,,,,,,,,,,,,,,,,,,,,,,,,,,,,,,,,,,,,,,,,,,,,,,,,,,,,,,,,,,,271.002,273.048,"[""2""]",[1.7900000000000205],[null],[],[],[],[],[],[],[],273.048,273.498,0,0.45,273.498,0,98,98,98,1,objects,lethal,2,0.45,0.15,1.9,images/Inert_Hairbrush_Blue_Oval.png,images/Lethal_Noose_1_Orange_Oval.png,images/Inert_Book_Orange_Rect.png,,
,,,,,,,,,,,,,,,,,,sert_test_2,,2025-12-22_14h24.46.803,sert_artemis_2025.2.3,2025.2.3,MacIntel,59.95203837,,,,,,,,,,,,,,,,,,,,,,,,,,,,,,,,,,,,,,,,,,,,,,,,,,,,,,,,,,,,,,,,,,,,,,,,,,,,,,,,273.502,275.548,"[""1""]",[1.3830000000000382],[null],[],[],[],[],[],[],[],275.548,275.898,0,0.35,275.898,0,99,99,99,1,objects,lethal,1,0.35,0.15,1.9,images/Lethal_Knife_Orange_Rect.png,images/Safe_BearHug_Blue_Rect.png,images/Safe_Goggles_Orange_Oval.png,,
,,,,,,,,,,,,,,,,,,sert_test_2,,2025-12-22_14h24.46.803,sert_artemis_2025.2.3,2025.2.3,MacIntel,59.95203837,,,,,,,,,,,,,,,,,,,,,,,,,,,,,,,,,,,,,,,,,,,,,,,,,,,,,,,,,,,,,,,,,,,,,,,,,,,,,,,,275.901,277.948,"[""2""]",[1.25],[null],[],[],[],[],[],[],[],277.948,278.398,0,0.45,278.398,0,100,100,100,1,objects,lethal,2,0.45,0.15,1.9,images/Safe_SeatBelt_Blue_Rect.png,images/Lethal_Razor_Blue_Rhom.png,images/Safe_Buoy_Orange_Rhom.png,,
,,,,,,,,,,,,,,,,,,sert_test_2,,2025-12-22_14h24.46.803,sert_artemis_2025.2.3,2025.2.3,MacIntel,59.95203837,,,,,,,,,,,,,,,,,,,,,,,,,,,,,,,,,,,,,,,,,,,,,,,,,,,,,,,,,,,,,,,,,,,,,,,,,,,,,,,,278.401,280.448,"[""1""]",[1.0989999999999895],[null],[],[],[],[],[],[],[],280.448,280.799,0,0.351,280.799,0,101,101,101,1,objects,lethal,1,0.35,0.15,1.9,images/Lethal_Noose_1_Orange_Rect.png,images/Safe_Buoy_Blue_Rect.png,images/Safe_BearHug_Orange_Oval.png,,
,,,,,,,,,,,,,,,,,,sert_test_2,,2025-12-22_14h24.46.803,sert_artemis_2025.2.3,2025.2.3,MacIntel,59.95203837,,,,,,,,,,,,,,,,,,,,,,,,,,,,,,,,,,,,,,,,,,,,,,,,,,,,,,,,,,,,,,,,,,,,,,,,,,,,,,,,280.801,282.849,"[""3""]",[1.3149999999999977],[null],[],[],[],[],[],[],[],282.849,283.198,0,0.349,283.198,0,102,102,102,1,objects,lethal,3,0.35,0.15,1.9,images/Lethal_Gun_1_Blue_Rect.png,images/Lethal_Noose_1_Orange_Rhom.png,images/Safe_Goggles_Orange_Rect.png,,
,,,,,,,,,,,,,,,,,,sert_test_2,,2025-12-22_14h24.46.803,sert_artemis_2025.2.3,2025.2.3,MacIntel,59.95203837,,,,,,,,,,,,,,,,,,,,,,,,,,,,,,,,,,,,,,,,,,,,,,,,,,,,,,,,,,,,,,,,,,,,,,,,,,,,,,,,283.204,285.249,"[""1""]",[1.2719999999999914],[null],[],[],[],[],[],[],[],285.249,285.799,0.001,0.549,285.799,0,103,103,103,1,objects,color,1,0.55,0.15,1.9,images/Lethal_Gun_1_Blue_Oval.png,images/Safe_Extinguisher_Orange_Oval.png,images/Lethal_Pills_Orange_Rhom.png,,
,,,,,,,,,,,,,,,,,,sert_test_2,,2025-12-22_14h24.46.803,sert_artemis_2025.2.3,2025.2.3,MacIntel,59.95203837,,,,,,,,,,,,,,,,,,,,,,,,,,,,,,,,,,,,,,,,,,,,,,,,,,,,,,,,,,,,,,,,,,,,,,,,,,,,,,,,285.803,287.85,"[""3""]",[1.8319999999999936],[null],[],[],[],[],[],[],[],287.85,288.199,0,0.349,288.199,0,104,104,104,1,objects,shape,3,0.35,0.15,1.9,images/Lethal_Poison_Blue_Oval.png,images/Inert_Camera_Orange_Oval.png,images/Inert_Camera_Blue_Rect.png,,
,,,,,,,,,,,,,,,,,,sert_test_2,,2025-12-22_14h24.46.803,sert_artemis_2025.2.3,2025.2.3,MacIntel,59.95203837,,,,,,,,,,,,,,,,,,,,,,,,,,,,,,,,,,,,,,,,,,,,,,,,,,,,,,,,,,,,,,,,,,,,,,,,,,,,,,,,288.209,290.249,"[""2""]",[1.4879999999999995],[null],[],[],[],[],[],[],[],290.249,290.699,0,0.449,290.699,0,105,105,105,1,objects,lethal,2,0.45,0.15,1.9,images/Lethal_Pills_Orange_Rect.png,images/Safe_Extinguisher_Orange_Rhom.png,images/Lethal_Gun_1_Blue_Rhom.png,,
,,,,,,,,,,,,,,,,,,sert_test_2,,2025-12-22_14h24.46.803,sert_artemis_2025.2.3,2025.2.3,MacIntel,59.95203837,,,,,,,,,,,,,,,,,,,,,,,,,,,,,,,,,,,,,,,,,,,,,,,,,,,,,,,,,,,,,,,,,,,,,,,,,,,,,,,,290.702,292.749,"[""1""]",[1.3400000000000318],[null],[],[],[],[],[],[],[],292.749,293.199,0,0.449,293.199,0,106,106,106,1,objects,lethal,1,0.45,0.15,1.9,images/Lethal_Knife_Blue_Rhom.png,images/Inert_Hat_Blue_Rect.png,images/Inert_Strawberry_Orange_Rhom.png,,
,,,,,,,,,,,,,,,,,,sert_test_2,,2025-12-22_14h24.46.803,sert_artemis_2025.2.3,2025.2.3,MacIntel,59.95203837,,,,,,,,,,,,,,,,,,,,,,,,,,,,,,,,,,,,,,,,,,,,,,,,,,,,,,,,,,,,,,,,,,,,,,,,,,,,,,,,293.203,295.249,"[""1""]",[1.507000000000005],[null],[],[],[],[],[],[],[],295.249,295.799,0,0.55,295.799,0,107,107,107,1,objects,shape,1,0.55,0.15,1.9,images/Inert_Orange_Blue_Rect.png,images/Lethal_Pills_Blue_Rhom.png,images/Inert_Hat_Orange_Rhom.png,,
,,,,,,,,,,,,,,,,,,sert_test_2,,2025-12-22_14h24.46.803,sert_artemis_2025.2.3,2025.2.3,MacIntel,59.95203837,,,,,,,,,,,,,,,,,,,,,,,,,,,,,,,,,,,,,,,,,,,,,,,,,,,,,,,,,,,,,,,,,,,,,,,,,,,,,,,,295.802,297.849,"[""3""]",[1.7690000000000055],[null],[],[],[],[],[],[],[],297.849,298.299,0,0.45,298.299,0,108,108,108,1,objects,shape,3,0.45,0.15,1.9,images/Safe_SeatBelt_Blue_Rect.png,images/Lethal_Gun_1_Orange_Rect.png,images/Safe_Extinguisher_Orange_Oval.png,,
,,,,,,,,,,,,,,,,,,sert_test_2,,2025-12-22_14h24.46.803,sert_artemis_2025.2.3,2025.2.3,MacIntel,59.95203837,,,,,,,,,,,,,,,,,,,,,,,,,,,,,,,,,,,,,,,,,,,,,,,,,,,,,,,,,,,,,,,,,,,,,,,,,,,,,,,,298.302,300.349,"[""1""]",[1.9739999999999895],[null],[],[],[],[],[],[],[],300.35,300.698,0,0.348,300.698,0,109,109,109,1,objects,color,1,0.35,0.15,1.9,images/Inert_Strawberry_Orange_Rect.png,images/Inert_Book_Blue_Oval.png,images/Lethal_Noose_1_Blue_Rect.png,,
,,,,,,,,,,,,,,,,,,sert_test_2,,2025-12-22_14h24.46.803,sert_artemis_2025.2.3,2025.2.3,MacIntel,59.95203837,,,,,,,,,,,,,,,,,,,,,,,,,,,,,,,,,,,,,,,,,,,,,,,,,,,,,,,,,,,,,,,,,,,,,,,,,,,,,,,,300.7,302.749,,,,[],[],[],[],[],[],[],302.749,303.199,0,0.45,303.199,0,110,110,110,1,objects,lethal,3,0.45,0.15,1.9,images/Lethal_Knife_Blue_Oval.png,images/Lethal_Poison_Orange_Rhom.png,images/Safe_Goggles_Orange_Oval.png,,
,,,,,,,,,,,,,,,,,,sert_test_2,,2025-12-22_14h24.46.803,sert_artemis_2025.2.3,2025.2.3,MacIntel,59.95203837,,,,,,,,,,,,,,,,,,,,,,,,,,,,,,,,,,,,,,,,,,,,,,,,,,,,,,,,,,,,,,,,,,,,,,,,,,,,,,,,303.201,305.249,"[""2""]",[1.7350000000000136],[null],[],[],[],[],[],[],[],305.249,305.799,0,0.55,305.799,0,111,111,111,1,objects,lethal,3,0.55,0.15,1.9,images/Lethal_Poison_Orange_Rect.png,images/Lethal_Noose_1_Blue_Oval.png,images/Safe_Buoy_Orange_Oval.png,,
,,,,,,,,,,,,,,,,,,sert_test_2,,2025-12-22_14h24.46.803,sert_artemis_2025.2.3,2025.2.3,MacIntel,59.95203837,,,,,,,,,,,,,,,,,,,,,,,,,,,,,,,,,,,,,,,,,,,,,,,,,,,,,,,,,,,,,,,,,,,,,,,,,,,,,,,,305.799,307.849,"[""1""]",[1.302000000000021],[null],[],[],[],[],[],[],[],307.849,308.299,0,0.45,308.299,0,112,112,112,1,objects,lethal,1,0.45,0.15,1.9,images/Safe_LifeVest_Orange_Rect.png,images/Lethal_Pills_Orange_Rhom.png,images/Lethal_Poison_Blue_Rect.png,,
,,,,,,,,,,,,,,,,,,sert_test_2,,2025-12-22_14h24.46.803,sert_artemis_2025.2.3,2025.2.3,MacIntel,59.95203837,,,,,,,,,,,,,,,,,,,,,,,,,,,,,,,,,,,,,,,,,,,,,,,,,,,,,,,,,,,,,,,,,,,,,,,,,,,,,,,,308.302,310.349,"[""1""]",[1.447999999999979],[null],[],[],[],[],[],[],[],310.35,310.899,0,0.549,310.899,0,113,113,113,1,objects,lethal,2,0.55,0.15,1.9,images/Lethal_Pills_Blue_Oval.png,images/Safe_SeatBelt_Orange_Oval.png,images/Lethal_Gun_1_Orange_Rhom.png,,
,,,,,,,,,,,,,,,,,,sert_test_2,,2025-12-22_14h24.46.803,sert_artemis_2025.2.3,2025.2.3,MacIntel,59.95203837,,,,,,,,,,,,,,,,,,,,,,,,,,,,,,,,,,,,,,,,,,,,,,,,,,,,,,,,,,,,,,,,,,,,,,,,,,,,,,,,310.901,312.949,"[""3""]",[1.6820000000000164],[null],[],[],[],[],[],[],[],312.949,313.4,0,0.451,313.4,0,114,114,114,1,objects,lethal,3,0.45,0.15,1.9,images/Lethal_Razor_Blue_Oval.png,images/Lethal_Knife_Orange_Rhom.png,images/Safe_LifeVest_Blue_Rhom.png,,
,,,,,,,,,,,,,,,,,,sert_test_2,,2025-12-22_14h24.46.803,sert_artemis_2025.2.3,2025.2.3,MacIntel,59.95203837,,,,,,,,,,,,,,,,,,,,,,,,,,,,,,,,,,,,,,,,,,,,,,,,,,,,,,,,,,,,,,,,,,,,,,,,,,,,,,,,313.402,315.449,"[""1""]",[1.336999999999989],[null],[],[],[],[],[],[],[],315.449,315.899,0,0.45,315.899,0,115,115,115,1,objects,lethal,1,0.45,0.15,1.9,images/Safe_SeatBelt_Blue_Rhom.png,images/Lethal_Pills_Blue_Rect.png,images/Lethal_Gun_1_Orange_Rhom.png,,
,,,,,,,,,,,,,,,,,,sert_test_2,,2025-12-22_14h24.46.803,sert_artemis_2025.2.3,2025.2.3,MacIntel,59.95203837,,,,,,,,,,,,,,,,,,,,,,,,,,,,,,,,,,,,,,,,,,,,,,,,,,,,,,,,,,,,,,,,,,,,,,,,,,,,,,,,315.902,317.949,"[""1""]",[1.4010000000000105],[null],[],[],[],[],[],[],[],317.95,318.3,0,0.35,318.3,0,116,116,116,1,objects,lethal,1,0.35,0.15,1.9,images/Safe_Extinguisher_Blue_Oval.png,images/Lethal_Poison_Blue_Rhom.png,images/Lethal_Noose_1_Orange_Oval.png,,
,,,,,,,,,,,,,,,,,,sert_test_2,,2025-12-22_14h24.46.803,sert_artemis_2025.2.3,2025.2.3,MacIntel,59.95203837,,,,,,,,,,,,,,,,,,,,,,,,,,,,,,,,,,,,,,,,,,,,,,,,,,,,,,,,,,,,,,,,,,,,,,,,,,,,,,,,318.302,320.351,"[""3""]",[1.4489999999999554],[null],[],[],[],[],[],[],[],320.351,320.799,0,0.448,320.799,0,117,117,117,1,objects,lethal,3,0.45,0.15,1.9,images/Lethal_Gun_1_Blue_Rect.png,images/Lethal_Razor_Orange_Oval.png,images/Safe_BearHug_Blue_Oval.png,,
,,,,,,,,,,,,,,,,,,sert_test_2,,2025-12-22_14h24.46.803,sert_artemis_2025.2.3,2025.2.3,MacIntel,59.95203837,,,,,,,,,,,,,,,,,,,,,,,,,,,,,,,,,,,,,,,,,,,,,,,,,,,,,,,,,,,,,,,,,,,,,,,,,,,,,,,,320.8,322.852,"[""1""]",[1.336999999999989],[null],[],[],[],[],[],[],[],322.853,323.3,0,0.447,323.3,0,118,118,118,1,objects,lethal,1,0.45,0.15,1.9,images/Safe_LifeVest_Orange_Rhom.png,images/Lethal_Pills_Blue_Rhom.png,images/Lethal_Knife_Orange_Rect.png,,
,,,,,,,,,,,,,,,,,,sert_test_2,,2025-12-22_14h24.46.803,sert_artemis_2025.2.3,2025.2.3,MacIntel,59.95203837,,,,,,,,,,,,,,,,,,,,,,,,,,,,,,,,,,,,,,,,,,,,,,,,,,,,,,,,,,,,,,,,,,,,,,,,,,,,,,,,323.306,325.35,"[""3""]",[1.2489999999999668],[null],[],[],[],[],[],[],[],325.351,325.899,0,0.548,325.899,0,119,119,119,1,objects,lethal,3,0.55,0.15,1.9,images/Lethal_Noose_1_Blue_Oval.png,images/Lethal_Razor_Orange_Rhom.png,images/Safe_Buoy_Blue_Rhom.png,,
,,,,,,,,,,,,,,,,,,sert_test_2,,2025-12-22_14h24.46.803,sert_artemis_2025.2.3,2025.2.3,MacIntel,59.95203837,,,,,,,,,,,,,,,,,,,,,,,,,,,,,,,,,,,,,,,,,,,,,,,,,,,,,,,,,,,,,,,,,,,,,,,,,,,,,,,,,,,,,,,,,,,,,,,,,,,,,,,,,,,,,,,325.9,329.9