check_device.started,check_device.stopped,participant,session,date,expName,psychopyVersion,OS,frameRate,instructions.started,instructions.stopped,imouse.x,imouse.y,imouse.leftButton,imouse.midButton,imouse.rightButton,imouse.time,cross.started,cross.stopped,p_trial.started,p_trial.stopped,pnPumps,psize,pearnings,ppopped,pmouse.x,pmouse.y,pmouse.leftButton,pmouse.midButton,pmouse.rightButton,pmouse.time,p_feedback.started,p_feedback.stopped,practice.thisRepN,practice.thisTrialN,practice.thisN,practice.thisIndex,practice.ran,instructions_2.started,instructions_2.stopped,i2mouse.x,i2mouse.y,i2mouse.leftButton,i2mouse.midButton,i2mouse.rightButton,i2mouse.time,trial.started,trial.stopped,nPumps,size,earnings,popped,maxPumps,mouse.x,mouse.y,mouse.leftButton,mouse.midButton,mouse.rightButton,mouse.time,feedback.started,feedback.stopped,real_trials.thisRepN,real_trials.thisTrialN,real_trials.thisN,real_trials.thisIndex,real_trials.ran,finalScore.started,finalScore.stopped,finalmouse.x,finalmouse.y,finalmouse.leftButton,finalmouse.midButton,finalmouse.rightButton,finalmouse.time
0.001,0.002,example_1,1,2020-01-01_12h00.00.000,BART_v3-2_touch,2023.2.2,iPad,45.45454545,,,,,,,,,,,,,,,,,,,,,,,,,,,,,,,,,,,,,,,,,,,,,,,,,,,,,,,,,,,,,,,,,
,,example_1,1,2020-01-01_12h00.00.000,BART_v3-2_touch,2023.2.2,iPad,45.45454545,0.002,11.851,0.330508475,-0.867816092,1,0,0,10.842,,,,,,,,,,,,,,,,,,,,,,,,,,,,,,,,,,,,,,,,,,,,,,,,,,,,,,,,,
,,example_1,1,2020-01-01_12h00.00.000,BART_v3-2_touch,2023.2.2,iPad,45.45454545,,,,,,,,,11.866,12.857,12.858,31.231,27,"[0.5549999999999999,0.605]",270,FALSE,"[-0.4610169491525424,-0.43559322033898307,-0.4322033898305085,-0.4440677966101695,-0.4067796610169492,-0.4135593220338983,-0.423728813559322,-0.41694915254237286,-0.43389830508474575,-0.4440677966101695,-0.43728813559322033,-0.45254237288135596,-0.4271186440677966,-0.411864406779661,-0.42033898305084744,-0.4186440677966102,-0.43389830508474575,-0.4406779661016949,-0.43559322033898307,-0.43050847457627117,-0.42542372881355933,-0.4186440677966102,-0.43389830508474575,-0.4271186440677966,-0.42542372881355933,-0.4322033898305085,-0.4423728813559322,0.4728813559322034]","[-0.9166666666666666,-0.9109195402298851,-0.9252873563218391,-0.9454022988505747,-0.9109195402298851,-0.9511494252873564,-0.9051724137931034,-0.9109195402298851,-0.9425287356321839,-0.9224137931034483,-0.9310344827586207,-0.9224137931034483,-0.9137931034482759,-0.8591954022988506,-0.8879310344827587,-0.9109195402298851,-0.882183908045977,-0.9339080459770115,-0.8994252873563219,-0.896551724137931,-0.9109195402298851,-0.8706896551724138,-0.9339080459770115,-0.9367816091954023,-0.9109195402298851,-0.8879310344827587,-0.882183908045977,-0.9195402298850575]","[1,1,1,1,1,1,1,1,1,1,1,1,1,1,1,1,1,1,1,1,1,1,1,1,1,1,1,1]","[0,0,0,0,0,0,0,0,0,0,0,0,0,0,0,0,0,0,0,0,0,0,0,0,0,0,0,0]","[0,0,0,0,0,0,0,0,0,0,0,0,0,0,0,0,0,0,0,0,0,0,0,0,0,0,0,0]","[3.171000000000049,4.16800000000012,4.851000000000113,5.101000000000113,6.25200000000018,6.719000000000051,6.932000000000016,7.1180000000001655,7.314000000000078,7.517000000000053,8.453000000000202,9.802000000000135,10.399000000000115,10.634000000000015,10.83400000000006,11.034000000000106,11.25,11.465000000000146,12.285000000000082,12.884000000000015,13.386000000000195,13.66800000000012,14.10200000000009,14.419000000000096,14.767000000000053,16.16500000000019,17.718000000000075,18.36500000000001]",31.236,32.739,0,0,0,0,1,,,,,,,,,,,,,,,,,,,,,,,,,,,,,,,,,,,,
,,example_1,1,2020-01-01_12h00.00.000,BART_v3-2_touch,2023.2.2,iPad,45.45454545,,,,,,,,,,,,,,,,,,,,,,,,,,,,,,32.74,35.917,0.315254237,-0.982758621,1,0,0,2.162,,,,,,,,,,,,,,,,,,,,,,,,,,,,
,,example_1,1,2020-01-01_12h00.00.000,BART_v3-2_touch,2023.2.2,iPad,45.45454545,,,,,,,,,35.921,36.921,,,,,,,,,,,,,,,,,,,,,,,,,,,,36.922,43.733,14,"[0.36,0.41000000000000003]",140,FALSE,64,"[-0.4661016949152542,-0.4728813559322034,-0.4847457627118644,-0.4728813559322034,-0.47966101694915253,-0.48135593220338985,-0.48135593220338985,-0.4847457627118644,-0.4728813559322034,-0.46779661016949153,-0.4728813559322034,-0.44745762711864406,-0.4423728813559322,-0.45932203389830506,0.5169491525423728]","[-0.8994252873563219,-0.9396551724137931,-0.9339080459770115,-0.9109195402298851,-0.896551724137931,-0.882183908045977,-0.9051724137931034,-0.9051724137931034,-0.9022988505747126,-0.8936781609195402,-0.9022988505747126,-0.8936781609195402,-0.8908045977011494,-0.896551724137931,-0.9339080459770115]","[1,1,1,1,1,1,1,1,1,1,1,1,1,1,1]","[0,0,0,0,0,0,0,0,0,0,0,0,0,0,0]","[0,0,0,0,0,0,0,0,0,0,0,0,0,0,0]","[1.0039999999999054,1.5709999999999127,1.7860000000000582,1.9519999999999982,2.133999999999787,2.3689999999999145,2.736000000000331,2.9350000000004,3.118000000000393,3.518000000000029,4.219000000000051,4.870000000000346,5.536000000000058,6.167000000000371,6.803000000000338]",43.733,45.238,0,0,0,0,1,,,,,,,,
,,example_1,1,2020-01-01_12h00.00.000,BART_v3-2_touch,2023.2.2,iPad,45.45454545,,,,,,,,,45.239,46.237,,,,,,,,,,,,,,,,,,,,,,,,,,,,46.237,56.697,24,"[0.51,0.56]",240,FALSE,92,"[-0.4847457627118644,-0.49491525423728816,-0.49830508474576274,-0.49830508474576274,-0.5016949152542373,-0.49491525423728816,-0.47796610169491527,-0.47627118644067795,-0.4694915254237288,-0.4491525423728814,-0.45254237288135596,-0.46271186440677964,-0.46779661016949153,-0.4728813559322034,-0.4728813559322034,-0.46779661016949153,-0.46440677966101696,-0.4491525423728814,-0.4491525423728814,-0.4491525423728814,-0.4559322033898305,-0.4440677966101695,-0.4406779661016949,-0.43559322033898307,0.5]","[-0.9022988505747126,-0.9482758620689655,-0.8793103448275862,-0.896551724137931,-0.8936781609195402,-0.8879310344827587,-0.8850574712643678,-0.8850574712643678,-0.8908045977011494,-0.9022988505747126,-0.8936781609195402,-0.9109195402298851,-0.9080459770114943,-0.9339080459770115,-0.9109195402298851,-0.882183908045977,-0.8879310344827587,-0.8620689655172413,-0.8764367816091954,-0.8649425287356322,-0.8850574712643678,-0.8448275862068966,-0.867816091954023,-0.9252873563218391,-0.9166666666666666]","[1,1,1,1,1,1,1,1,1,1,1,1,1,1,1,1,1,1,1,1,1,1,1,1,1]","[0,0,0,0,0,0,0,0,0,0,0,0,0,0,0,0,0,0,0,0,0,0,0,0,0]","[0,0,0,0,0,0,0,0,0,0,0,0,0,0,0,0,0,0,0,0,0,0,0,0,0]","[1.038000000000011,1.53899999999976,1.7719999999999345,1.987999999999829,2.188000000000102,2.3869999999997162,2.587999999999738,2.7539999999999054,2.9710000000000036,3.336999999999989,3.5709999999999127,3.78899999999976,4.221000000000004,4.639000000000124,5.020999999999731,5.337999999999738,5.570999999999913,5.820999999999913,6.255999999999858,6.822999999999865,7.536000000000058,8.069999999999709,8.672000000000025,9.93899999999985,10.453999999999724]",56.698,58.187,1,0,1,0,1,,,,,,,,
,,example_1,1,2020-01-01_12h00.00.000,BART_v3-2_touch,2023.2.2,iPad,45.45454545,,,,,,,,,58.188,59.187,,,,,,,,,,,,,,,,,,,,,,,,,,,,59.187,66.027,24,"[0.495,0.5449999999999999]",230,TRUE,23,"[-0.4745762711864407,-0.4745762711864407,-0.45932203389830506,-0.46779661016949153,-0.48135593220338985,-0.47627118644067795,-0.47796610169491527,-0.47796610169491527,-0.4745762711864407,-0.4728813559322034,-0.4745762711864407,-0.4745762711864407,-0.4745762711864407,-0.4728813559322034,-0.4610169491525424,-0.4440677966101695,-0.4542372881355932,-0.45084745762711864,-0.44745762711864406,-0.4406779661016949,-0.43050847457627117,-0.4271186440677966,-0.42203389830508475,-0.45254237288135596]","[-0.9022988505747126,-0.867816091954023,-0.9310344827586207,-0.9224137931034483,-0.8908045977011494,-0.882183908045977,-0.9022988505747126,-0.8879310344827587,-0.8850574712643678,-0.8764367816091954,-0.8793103448275862,-0.8908045977011494,-0.896551724137931,-0.896551724137931,-0.882183908045977,-0.8591954022988506,-0.8764367816091954,-0.8591954022988506,-0.8706896551724138,-0.882183908045977,-0.8649425287356322,-0.8477011494252874,-0.8591954022988506,-0.853448275862069]","[1,1,1,1,1,1,1,1,1,1,1,1,1,1,1,1,1,1,1,1,1,1,1,1]","[0,0,0,0,0,0,0,0,0,0,0,0,0,0,0,0,0,0,0,0,0,0,0,0]","[0,0,0,0,0,0,0,0,0,0,0,0,0,0,0,0,0,0,0,0,0,0,0,0]","[0.7210000000000036,0.918999999999869,1.1209999999996398,1.3219999999996617,1.5039999999999054,1.6859999999996944,1.8849999999997635,2.1039999999998145,2.336999999999989,2.538000000000011,2.7349999999996726,2.9539999999997235,3.1709999999998217,3.3849999999997635,3.587999999999738,3.8539999999998145,4.288000000000011,4.688999999999851,5.1039999999998145,5.5219999999999345,5.786000000000058,5.987999999999829,6.403999999999996,6.835000000000036]",66.027,67.52,2,0,2,0,1,,,,,,,,
,,example_1,1,2020-01-01_12h00.00.000,BART_v3-2_touch,2023.2.2,iPad,45.45454545,,,,,,,,,67.521,68.519,,,,,,,,,,,,,,,,,,,,,,,,,,,,68.519,77.199,23,"[0.495,0.5449999999999999]",230,FALSE,44,"[-0.4542372881355932,-0.4576271186440678,-0.4406779661016949,-0.4440677966101695,-0.4322033898305085,-0.43898305084745765,-0.43728813559322033,-0.43559322033898307,-0.4423728813559322,-0.43050847457627117,-0.43050847457627117,-0.42542372881355933,-0.411864406779661,-0.4067796610169492,-0.4101694915254237,-0.411864406779661,-0.39661016949152544,-0.4033898305084746,-0.3949152542372881,-0.3898305084745763,-0.3728813559322034,-0.39152542372881355,-0.3847457627118644,0.5457627118644067]","[-0.8994252873563219,-0.8764367816091954,-0.9109195402298851,-0.882183908045977,-0.9367816091954023,-0.9252873563218391,-0.9022988505747126,-0.9166666666666666,-0.9137931034482759,-0.9109195402298851,-0.9252873563218391,-0.9137931034482759,-0.9051724137931034,-0.9109195402298851,-0.9310344827586207,-0.9195402298850575,-0.9195402298850575,-0.8879310344827587,-0.9022988505747126,-0.8793103448275862,-0.8620689655172413,-0.8419540229885057,-0.8764367816091954,-0.8448275862068966]","[1,1,1,1,1,1,1,1,1,1,1,1,1,1,1,1,1,1,1,1,1,1,1,1]","[0,0,0,0,0,0,0,0,0,0,0,0,0,0,0,0,0,0,0,0,0,0,0,0]","[0,0,0,0,0,0,0,0,0,0,0,0,0,0,0,0,0,0,0,0,0,0,0,0]","[0.5900000000001455,0.7909999999997126,0.9729999999999563,1.1729999999997744,1.3739999999997963,1.606999999999971,1.8049999999998363,2.005999999999858,2.20699999999988,2.418999999999869,2.632999999999811,2.8519999999998618,3.0720000000001164,3.3899999999998727,3.688000000000102,3.9229999999997744,4.1729999999997744,4.655999999999949,5.123999999999796,5.606999999999971,6.257000000000062,6.875,7.875,8.677000000000135]",77.199,78.702,3,0,3,0,1,,,,,,,,
,,example_1,1,2020-01-01_12h00.00.000,BART_v3-2_touch,2023.2.2,iPad,45.45454545,,,,,,,,,78.703,79.702,,,,,,,,,,,,,,,,,,,,,,,,,,,,79.702,82.545,11,"[0.15,0.35]",100,TRUE,10,"[-0.49322033898305084,-0.49830508474576274,-0.5050847457627119,-0.49322033898305084,-0.488135593220339,-0.48983050847457626,-0.4915254237288136,-0.49830508474576274,-0.5050847457627119,-0.49830508474576274,-0.4745762711864407]","[-0.8649425287356322,-0.8936781609195402,-0.8879310344827587,-0.8764367816091954,-0.8908045977011494,-0.8706896551724138,-0.882183908045977,-0.8879310344827587,-0.8850574712643678,-0.882183908045977,-0.8764367816091954]","[1,1,1,1,1,1,1,1,1,1,1]","[0,0,0,0,0,0,0,0,0,0,0]","[0,0,0,0,0,0,0,0,0,0,0]","[0.7220000000002074,0.956000000000131,1.137000000000171,1.3380000000001928,1.5210000000001855,1.7029999999999745,1.9549999999999272,2.2210000000000036,2.4209999999998217,2.6210000000000946,2.838000000000193]",82.546,84.035,4,0,4,0,1,,,,,,,,
,,example_1,1,2020-01-01_12h00.00.000,BART_v3-2_touch,2023.2.2,iPad,45.45454545,,,,,,,,,84.036,85.035,,,,,,,,,,,,,,,,,,,,,,,,,,,,85.035,106.41,33,"[0.645,0.6950000000000001]",330,FALSE,37,"[-0.4271186440677966,-0.4610169491525424,-0.4661016949152542,-0.411864406779661,-0.42542372881355933,-0.4067796610169492,-0.40847457627118644,-0.4186440677966102,-0.41694915254237286,-0.411864406779661,-0.42542372881355933,-0.43898305084745765,-0.42033898305084744,-0.4,-0.43728813559322033,-0.4016949152542373,-0.3949152542372881,-0.3949152542372881,-0.4016949152542373,-0.411864406779661,-0.4101694915254237,-0.39661016949152544,-0.4152542372881356,-0.4288135593220339,-0.4559322033898305,-0.5,-0.44745762711864406,-0.4406779661016949,-0.39152542372881355,-0.47796610169491527,-0.43559322033898307,-0.4152542372881356,-0.4830508474576271,0.5169491525423728]","[-0.8908045977011494,-0.8850574712643678,-0.8735632183908046,-0.9252873563218391,-0.9080459770114943,-0.896551724137931,-0.8994252873563219,-0.8936781609195402,-0.8879310344827587,-0.9224137931034483,-0.8591954022988506,-0.9109195402298851,-0.8850574712643678,-0.8908045977011494,-0.9367816091954023,-0.8793103448275862,-0.9022988505747126,-0.8879310344827587,-0.8706896551724138,-0.9137931034482759,-0.9137931034482759,-0.8419540229885057,-0.8936781609195402,-0.8448275862068966,-0.882183908045977,-0.9195402298850575,-0.9367816091954023,-0.9454022988505747,-0.9712643678160919,-0.9540229885057471,-0.9339080459770115,-0.9224137931034483,-0.9195402298850575,-0.9195402298850575]","[1,1,1,1,1,1,1,1,1,1,1,1,1,1,1,1,1,1,1,1,1,1,1,1,1,1,1,1,1,1,1,1,1,1]","[0,0,0,0,0,0,0,0,0,0,0,0,0,0,0,0,0,0,0,0,0,0,0,0,0,0,0,0,0,0,0,0,0,0]","[0,0,0,0,0,0,0,0,0,0,0,0,0,0,0,0,0,0,0,0,0,0,0,0,0,0,0,0,0,0,0,0,0,0]","[0.5259999999998399,0.725999999999658,0.9259999999999309,1.1419999999998254,1.3429999999998472,1.5579999999999927,1.7579999999998108,2.0729999999998654,2.393000000000029,2.625999999999749,2.8739999999997963,3.44399999999996,3.85799999999972,4.27599999999984,4.626999999999953,5.125999999999749,5.673999999999978,6.2590000000000146,7.041999999999916,7.608999999999924,8.139999999999873,8.792999999999665,9.624999999999545,10.458999999999833,11.274999999999636,12.20699999999988,13.210999999999785,15.592999999999847,17.174999999999727,17.958999999999833,19.041999999999916,19.90899999999965,20.755999999999858,21.373999999999796]",106.41,107.9,5,0,5,0,1,,,,,,,,
,,example_1,1,2020-01-01_12h00.00.000,BART_v3-2_touch,2023.2.2,iPad,45.45454545,,,,,,,,,107.902,108.9,,,,,,,,,,,,,,,,,,,,,,,,,,,,108.9,117.53,25,"[0.525,0.575]",250,FALSE,85,"[-0.4711864406779661,-0.5101694915254237,-0.4966101694915254,-0.4830508474576271,-0.4847457627118644,-0.4847457627118644,-0.47796610169491527,-0.4745762711864407,-0.4728813559322034,-0.46271186440677964,-0.4661016949152542,-0.45254237288135596,-0.4542372881355932,-0.423728813559322,-0.4288135593220339,-0.43050847457627117,-0.42033898305084744,-0.4288135593220339,-0.43728813559322033,-0.42203389830508475,-0.42033898305084744,-0.4101694915254237,-0.4,-0.3898305084745763,-0.38813559322033897,0.6067796610169491]","[-0.8735632183908046,-0.9454022988505747,-0.9454022988505747,-0.9396551724137931,-0.9252873563218391,-0.9310344827586207,-0.9252873563218391,-0.9224137931034483,-0.9224137931034483,-0.9166666666666666,-0.9166666666666666,-0.9051724137931034,-0.9137931034482759,-0.8879310344827587,-0.9051724137931034,-0.9109195402298851,-0.9051724137931034,-0.882183908045977,-0.9022988505747126,-0.9022988505747126,-0.9109195402298851,-0.9166666666666666,-0.9252873563218391,-0.9080459770114943,-0.9080459770114943,-0.9022988505747126]","[1,1,1,1,1,1,1,1,1,1,1,1,1,1,1,1,1,1,1,1,1,1,1,1,1,1]","[0,0,0,0,0,0,0,0,0,0,0,0,0,0,0,0,0,0,0,0,0,0,0,0,0,0]","[0,0,0,0,0,0,0,0,0,0,0,0,0,0,0,0,0,0,0,0,0,0,0,0,0,0]","[0.6190000000001419,0.8840000000000146,1.0709999999999127,1.2719999999999345,1.4710000000000036,1.6700000000000728,1.8710000000000946,2.0700000000001637,2.3220000000001164,2.5709999999999127,2.786000000000058,3.0720000000001164,3.4890000000000327,3.7719999999999345,3.9700000000002547,4.1710000000002765,4.369000000000142,4.755000000000109,5.221000000000004,5.619000000000142,5.836999999999989,6.037000000000262,6.5219999999999345,7.072000000000116,7.988000000000284,8.624000000000251]",117.53,119.033,6,0,6,0,1,,,,,,,,
,,example_1,1,2020-01-01_12h00.00.000,BART_v3-2_touch,2023.2.2,iPad,45.45454545,,,,,,,,,119.034,120.033,,,,,,,,,,,,,,,,,,,,,,,,,,,,120.033,136.39,34,"[0.66,0.71]",340,FALSE,121,"[-0.4406779661016949,-0.4457627118644068,-0.4457627118644068,-0.4406779661016949,-0.4406779661016949,-0.4542372881355932,-0.4661016949152542,-0.4745762711864407,-0.4745762711864407,-0.47796610169491527,-0.4610169491525424,-0.46440677966101696,-0.43559322033898307,-0.4271186440677966,-0.4271186440677966,-0.4271186440677966,-0.42203389830508475,-0.4033898305084746,-0.4101694915254237,-0.4152542372881356,-0.4135593220338983,-0.43050847457627117,-0.42203389830508475,-0.4135593220338983,-0.42203389830508475,-0.4440677966101695,-0.4694915254237288,-0.4406779661016949,-0.43728813559322033,-0.4406779661016949,-0.45084745762711864,-0.4491525423728814,-0.44745762711864406,-0.5016949152542373,0.5050847457627119]","[-0.8390804597701149,-0.8936781609195402,-0.8994252873563219,-0.9051724137931034,-0.9109195402298851,-0.9051724137931034,-0.8994252873563219,-0.8908045977011494,-0.9080459770114943,-0.8936781609195402,-0.8879310344827587,-0.8793103448275862,-0.8850574712643678,-0.8994252873563219,-0.9022988505747126,-0.896551724137931,-0.9022988505747126,-0.896551724137931,-0.9166666666666666,-0.9166666666666666,-0.9166666666666666,-0.9195402298850575,-0.8994252873563219,-0.8936781609195402,-0.882183908045977,-0.8879310344827587,-0.9224137931034483,-0.882183908045977,-0.8936781609195402,-0.9051724137931034,-0.9022988505747126,-0.9252873563218391,-0.9195402298850575,-0.9310344827586207,-0.8850574712643678]","[1,1,1,1,1,1,1,1,1,1,1,1,1,1,1,1,1,1,1,1,1,1,1,1,1,1,1,1,1,1,1,1,1,1,1]","[0,0,0,0,0,0,0,0,0,0,0,0,0,0,0,0,0,0,0,0,0,0,0,0,0,0,0,0,0,0,0,0,0,0,0]","[0,0,0,0,0,0,0,0,0,0,0,0,0,0,0,0,0,0,0,0,0,0,0,0,0,0,0,0,0,0,0,0,0,0,0]","[0.6730000000002292,0.9380000000001019,1.1390000000001237,1.3209999999999127,1.5059999999998581,1.7049999999999272,1.9050000000002,2.088999999999942,2.2890000000002146,2.538000000000011,2.9050000000002,3.288000000000011,3.8029999999998836,4.0210000000001855,4.222000000000207,4.405999999999949,4.605000000000018,5.123999999999796,5.6550000000002,6.054000000000087,6.572999999999865,7.287000000000262,8.355000000000018,9.322000000000116,10.072000000000116,11.204999999999927,12.137000000000171,12.655999999999949,13.222000000000207,13.755999999999858,14.271000000000186,14.75500000000011,15.003999999999905,15.769999999999982,16.353000000000065]",136.39,137.881,7,0,7,0,1,,,,,,,,
,,example_1,1,2020-01-01_12h00.00.000,BART_v3-2_touch,2023.2.2,iPad,45.45454545,,,,,,,,,137.882,138.881,,,,,,,,,,,,,,,,,,,,,,,,,,,,138.881,152.874,35,"[0.675,0.7250000000000001]",350,FALSE,65,"[-0.5016949152542373,-0.5457627118644067,-0.5305084745762711,-0.5169491525423728,-0.5169491525423728,-0.4847457627118644,-0.45084745762711864,-0.4661016949152542,-0.47627118644067795,-0.4711864406779661,-0.4711864406779661,-0.4610169491525424,-0.4576271186440678,-0.4542372881355932,-0.45932203389830506,-0.4542372881355932,-0.4491525423728814,-0.4423728813559322,-0.4423728813559322,-0.4457627118644068,-0.4440677966101695,-0.4440677966101695,-0.4406779661016949,-0.43728813559322033,-0.4322033898305085,-0.4271186440677966,-0.43050847457627117,-0.4152542372881356,-0.39661016949152544,-0.3610169491525424,-0.35084745762711866,-0.4423728813559322,-0.4322033898305085,-0.4322033898305085,-0.43389830508474575,-0.4322033898305085,-0.4491525423728814,-0.4440677966101695,-0.46440677966101696,-0.4559322033898305,0.5372881355932203]","[-0.9137931034482759,-0.9885057471264368,-0.9770114942528736,-0.9770114942528736,-0.9712643678160919,-0.9568965517241379,-0.9051724137931034,-0.9367816091954023,-0.9252873563218391,-0.9224137931034483,-0.9080459770114943,-0.8936781609195402,-0.8850574712643678,-0.8793103448275862,-0.8735632183908046,-0.8706896551724138,-0.8706896551724138,-0.867816091954023,-0.8620689655172413,-0.8706896551724138,-0.8706896551724138,-0.8591954022988506,-0.8591954022988506,-0.8563218390804598,-0.8477011494252874,-0.8448275862068966,-0.8390804597701149,-0.8419540229885057,-0.8764367816091954,-0.8362068965517241,-0.8247126436781609,-0.8879310344827587,-0.8591954022988506,-0.8362068965517241,-0.8247126436781609,-0.8591954022988506,-0.8620689655172413,-0.8448275862068966,-0.8591954022988506,-0.8505747126436781,-0.8649425287356322]","[1,1,1,1,1,1,1,1,1,1,1,1,1,1,1,1,1,1,1,1,1,1,1,1,1,1,1,1,1,1,1,1,1,1,1,1,1,1,1,1,1]","[0,0,0,0,0,0,0,0,0,0,0,0,0,0,0,0,0,0,0,0,0,0,0,0,0,0,0,0,0,0,0,0,0,0,0,0,0,0,0,0,0]","[0,0,0,0,0,0,0,0,0,0,0,0,0,0,0,0,0,0,0,0,0,0,0,0,0,0,0,0,0,0,0,0,0,0,0,0,0,0,0,0,0]","[0.6549999999997453,0.88799999999992,1.1050000000000182,1.3049999999998363,1.5219999999999345,1.7049999999999272,1.98700000000008,2.2049999999999272,2.438000000000102,2.6219999999998436,2.8209999999999127,3.0229999999996835,3.255999999999858,3.5029999999997017,3.7219999999997526,3.9220000000000255,4.13799999999992,4.319999999999709,4.520999999999731,4.7199999999998,4.918999999999869,5.139000000000124,5.337999999999738,5.520999999999731,5.721000000000004,5.956000000000131,6.136999999999716,6.386999999999716,6.855000000000018,7.507000000000062,8.002999999999702,8.603000000000065,9.090999999999894,9.835999999999785,10.302999999999884,10.521999999999935,11.105999999999767,11.722999999999956,12.306999999999789,13.039999999999964,13.987999999999829]",152.874,154.363,8,0,8,0,1,,,,,,,,
,,example_1,1,2020-01-01_12h00.00.000,BART_v3-2_touch,2023.2.2,iPad,45.45454545,,,,,,,,,154.364,155.363,,,,,,,,,,,,,,,,,,,,,,,,,,,,155.363,173.254,42,"[0.78,0.8300000000000001]",420,FALSE,106,"[-0.5135593220338983,-0.4745762711864407,-0.4728813559322034,-0.4847457627118644,-0.48983050847457626,-0.48135593220338985,-0.4864406779661017,-0.47627118644067795,-0.488135593220339,-0.4745762711864407,-0.4847457627118644,-0.5016949152542373,-0.49491525423728816,-0.5050847457627119,-0.4966101694915254,-0.4966101694915254,-0.4864406779661017,-0.488135593220339,-0.4864406779661017,-0.48983050847457626,-0.48983050847457626,-0.4728813559322034,-0.4864406779661017,-0.46440677966101696,-0.4694915254237288,-0.4559322033898305,-0.4728813559322034,-0.4610169491525424,-0.4864406779661017,-0.48983050847457626,-0.49830508474576274,-0.48135593220338985,-0.4711864406779661,-0.4728813559322034,-0.47627118644067795,-0.488135593220339,-0.49322033898305084,-0.46440677966101696,-0.4610169491525424,-0.5016949152542373,-0.4864406779661017,-0.4728813559322034,0.49491525423728816]","[-0.867816091954023,-0.8304597701149425,-0.8563218390804598,-0.867816091954023,-0.8879310344827587,-0.8994252873563219,-0.8850574712643678,-0.9137931034482759,-0.8936781609195402,-0.8793103448275862,-0.8994252873563219,-0.9252873563218391,-0.8994252873563219,-0.8850574712643678,-0.896551724137931,-0.8936781609195402,-0.882183908045977,-0.882183908045977,-0.8649425287356322,-0.9022988505747126,-0.896551724137931,-0.9051724137931034,-0.867816091954023,-0.8649425287356322,-0.8620689655172413,-0.867816091954023,-0.8591954022988506,-0.9051724137931034,-0.8735632183908046,-0.8563218390804598,-0.8735632183908046,-0.896551724137931,-0.867816091954023,-0.853448275862069,-0.8419540229885057,-0.8390804597701149,-0.8735632183908046,-0.8620689655172413,-0.8793103448275862,-0.8850574712643678,-0.8936781609195402,-0.8994252873563219,-0.8879310344827587]","[1,1,1,1,1,1,1,1,1,1,1,1,1,1,1,1,1,1,1,1,1,1,1,1,1,1,1,1,1,1,1,1,1,1,1,1,1,1,1,1,1,1,1]","[0,0,0,0,0,0,0,0,0,0,0,0,0,0,0,0,0,0,0,0,0,0,0,0,0,0,0,0,0,0,0,0,0,0,0,0,0,0,0,0,0,0,0]","[0,0,0,0,0,0,0,0,0,0,0,0,0,0,0,0,0,0,0,0,0,0,0,0,0,0,0,0,0,0,0,0,0,0,0,0,0,0,0,0,0,0,0]","[0.6920000000000073,0.9049999999997453,1.1039999999998145,1.3049999999998363,1.5209999999997308,1.7210000000000036,1.9389999999998508,2.188999999999851,2.4229999999997744,2.638999999999669,2.9220000000000255,3.13799999999992,3.5529999999998836,3.838999999999942,4.070999999999913,4.337999999999738,4.572000000000116,4.788000000000011,5.038000000000011,5.556999999999789,5.873000000000047,6.322000000000116,6.6039999999998145,7.170000000000073,7.503000000000156,7.755000000000109,8.105999999999767,8.586999999999989,8.888999999999669,9.155999999999949,9.539999999999964,9.871999999999844,10.202999999999975,10.487999999999829,10.822000000000116,11.554999999999836,12.422000000000025,12.904999999999745,14.00500000000011,15.170999999999822,16.253000000000156,17.337999999999738,17.885999999999967]",173.254,174.745,9,0,9,0,1,,,,,,,,
,,example_1,1,2020-01-01_12h00.00.000,BART_v3-2_touch,2023.2.2,iPad,45.45454545,,,,,,,,,174.746,175.745,,,,,,,,,,,,,,,,,,,,,,,,,,,,175.745,187.372,35,"[0.675,0.7250000000000001]",350,FALSE,66,"[-0.4830508474576271,-0.4847457627118644,-0.5135593220338983,-0.4830508474576271,-0.47796610169491527,-0.47796610169491527,-0.47966101694915253,-0.4728813559322034,-0.4966101694915254,-0.4728813559322034,-0.4864406779661017,-0.46271186440677964,-0.4440677966101695,-0.4576271186440678,-0.43898305084745765,-0.43728813559322033,-0.4271186440677966,-0.43898305084745765,-0.4559322033898305,-0.45254237288135596,-0.4559322033898305,-0.43559322033898307,-0.4406779661016949,-0.43898305084745765,-0.4491525423728814,-0.4440677966101695,-0.45254237288135596,-0.4406779661016949,-0.411864406779661,-0.42542372881355933,-0.4135593220338983,-0.42033898305084744,-0.4406779661016949,-0.4542372881355932,-0.4457627118644068,0.5305084745762711]","[-0.8706896551724138,-0.9454022988505747,-0.8908045977011494,-0.9022988505747126,-0.9080459770114943,-0.9281609195402298,-0.9080459770114943,-0.9022988505747126,-0.9022988505747126,-0.9137931034482759,-0.9051724137931034,-0.9080459770114943,-0.867816091954023,-0.9022988505747126,-0.882183908045977,-0.8879310344827587,-0.8620689655172413,-0.8850574712643678,-0.9022988505747126,-0.8764367816091954,-0.867816091954023,-0.8649425287356322,-0.8448275862068966,-0.867816091954023,-0.8591954022988506,-0.8591954022988506,-0.8936781609195402,-0.882183908045977,-0.8505747126436781,-0.8477011494252874,-0.8591954022988506,-0.8620689655172413,-0.8706896551724138,-0.8735632183908046,-0.867816091954023,-0.8850574712643678]","[1,1,1,1,1,1,1,1,1,1,1,1,1,1,1,1,1,1,1,1,1,1,1,1,1,1,1,1,1,1,1,1,1,1,1,1]","[0,0,0,0,0,0,0,0,0,0,0,0,0,0,0,0,0,0,0,0,0,0,0,0,0,0,0,0,0,0,0,0,0,0,0,0]","[0,0,0,0,0,0,0,0,0,0,0,0,0,0,0,0,0,0,0,0,0,0,0,0,0,0,0,0,0,0,0,0,0,0,0,0]","[0.6559999999999491,0.875,1.086999999999989,1.2890000000002146,1.4729999999999563,1.6720000000000255,1.905999999999949,2.1220000000002983,2.356999999999971,2.5900000000001455,2.8070000000002437,3.0219999999999345,3.423000000000229,3.6399999999998727,3.856000000000222,4.0909999999998945,4.322999999999865,4.773999999999887,5.122000000000298,5.356000000000222,5.605000000000018,5.95699999999988,6.189000000000306,6.439000000000306,6.689000000000306,6.9220000000000255,7.389000000000124,7.838999999999942,8.42300000000023,8.921000000000276,9.505999999999858,9.82400000000007,10.088999999999942,10.338999999999942,10.622000000000298,11.622000000000298]",187.372,188.862,10,0,10,0,1,,,,,,,,
,,example_1,1,2020-01-01_12h00.00.000,BART_v3-2_touch,2023.2.2,iPad,45.45454545,,,,,,,,,188.864,189.861,,,,,,,,,,,,,,,,,,,,,,,,,,,,189.861,202.835,38,"[0.72,0.77]",380,FALSE,118,"[-0.47966101694915253,-0.4847457627118644,-0.488135593220339,-0.4966101694915254,-0.5016949152542373,-0.5016949152542373,-0.48983050847457626,-0.4966101694915254,-0.488135593220339,-0.4728813559322034,-0.47966101694915253,-0.47966101694915253,-0.46271186440677964,-0.45084745762711864,-0.4423728813559322,-0.4491525423728814,-0.44745762711864406,-0.4440677966101695,-0.4423728813559322,-0.43559322033898307,-0.45932203389830506,-0.4661016949152542,-0.46271186440677964,-0.46271186440677964,-0.4610169491525424,-0.46779661016949153,-0.4694915254237288,-0.47627118644067795,-0.47796610169491527,-0.46271186440677964,-0.4610169491525424,-0.4542372881355932,-0.46779661016949153,-0.45932203389830506,-0.4694915254237288,-0.48135593220338985,-0.46440677966101696,-0.47627118644067795,-0.4745762711864407,-0.4610169491525424,0.5440677966101695]","[-0.8793103448275862,-0.8649425287356322,-0.882183908045977,-0.8994252873563219,-0.9224137931034483,-0.9540229885057471,-0.9166666666666666,-0.8994252873563219,-0.8850574712643678,-0.882183908045977,-0.8620689655172413,-0.8764367816091954,-0.8620689655172413,-0.8247126436781609,-0.8735632183908046,-0.8563218390804598,-0.8563218390804598,-0.8793103448275862,-0.8505747126436781,-0.8477011494252874,-0.8591954022988506,-0.8448275862068966,-0.882183908045977,-0.853448275862069,-0.8448275862068966,-0.8477011494252874,-0.8477011494252874,-0.8505747126436781,-0.853448275862069,-0.8419540229885057,-0.8333333333333334,-0.8304597701149425,-0.8304597701149425,-0.8189655172413793,-0.8563218390804598,-0.896551724137931,-0.8908045977011494,-0.8879310344827587,-0.867816091954023,-0.8649425287356322,-0.8793103448275862]","[1,1,1,1,1,1,1,1,1,1,1,1,1,1,1,1,1,1,1,1,1,1,1,1,1,1,1,1,1,1,1,1,1,1,1,1,1,1,1,1,1]","[0,0,0,0,0,0,0,0,0,0,0,0,0,0,0,0,0,0,0,0,0,0,0,0,0,0,0,0,0,0,0,0,0,0,0,0,0,0,0,0,0]","[0,0,0,0,0,0,0,0,0,0,0,0,0,0,0,0,0,0,0,0,0,0,0,0,0,0,0,0,0,0,0,0,0,0,0,0,0,0,0,0,0]","[0.7039999999997235,0.918999999999869,1.1190000000001419,1.3020000000001346,1.5019999999999527,1.6849999999999454,1.9029999999997926,2.119000000000142,2.300999999999931,2.4859999999998763,2.701999999999771,2.9039999999999964,3.119000000000142,3.4020000000000437,3.6520000000000437,3.9020000000000437,4.136999999999716,4.402999999999793,4.616999999999734,4.8530000000000655,5.335999999999785,5.552000000000135,5.768999999999778,5.98299999999972,6.168999999999869,6.402999999999793,6.6030000000000655,6.833999999999833,7.050999999999931,7.253000000000156,7.483999999999924,7.719000000000051,8.202999999999975,8.68600000000015,9.253000000000156,9.670000000000073,10.101999999999862,10.570999999999913,11.188000000000102,11.884999999999764,12.967000000000098]",202.835,204.326,11,0,11,0,1,,,,,,,,
,,example_1,1,2020-01-01_12h00.00.000,BART_v3-2_touch,2023.2.2,iPad,45.45454545,,,,,,,,,204.327,205.326,,,,,,,,,,,,,,,,,,,,,,,,,,,,205.326,207.919,12,"[0.31499999999999995,0.365]",110,TRUE,11,"[-0.4610169491525424,-0.4610169491525424,-0.4711864406779661,-0.4847457627118644,-0.49491525423728816,-0.5101694915254237,-0.5186440677966102,-0.5135593220338983,-0.5203389830508475,-0.5152542372881356,-0.5084745762711864,-0.5033898305084745]","[-0.8448275862068966,-0.8879310344827587,-0.867816091954023,-0.8419540229885057,-0.8908045977011494,-0.9252873563218391,-0.9195402298850575,-0.9310344827586207,-0.9454022988505747,-0.9626436781609196,-0.9741379310344828,-0.9454022988505747]","[1,1,1,1,1,1,1,1,1,1,1,1]","[0,0,0,0,0,0,0,0,0,0,0,0]","[0,0,0,0,0,0,0,0,0,0,0,0]","[0.5400000000004184,0.8030000000003383,0.9880000000002838,1.1710000000002765,1.3550000000000182,1.522000000000844,1.7049999999999272,1.8700000000003456,2.038000000000011,2.2210000000000036,2.4050000000002,2.588000000000193]",207.919,209.409,12,0,12,0,1,,,,,,,,
,,example_1,1,2020-01-01_12h00.00.000,BART_v3-2_touch,2023.2.2,iPad,45.45454545,,,,,,,,,209.41,210.409,,,,,,,,,,,,,,,,,,,,,,,,,,,,210.41,228.886,44,"[0.8099999999999999,0.8599999999999999]",440,FALSE,104,"[-0.43898305084745765,-0.4542372881355932,-0.45254237288135596,-0.43389830508474575,-0.4271186440677966,-0.42542372881355933,-0.4186440677966102,-0.41694915254237286,-0.411864406779661,-0.423728813559322,-0.43559322033898307,-0.4288135593220339,-0.423728813559322,-0.423728813559322,-0.4186440677966102,-0.43559322033898307,-0.43728813559322033,-0.4271186440677966,-0.42542372881355933,-0.4271186440677966,-0.4186440677966102,-0.4271186440677966,-0.42203389830508475,-0.4067796610169492,-0.4033898305084746,-0.4288135593220339,-0.42033898305084744,-0.4491525423728814,-0.4559322033898305,-0.4694915254237288,-0.4440677966101695,-0.45084745762711864,-0.45254237288135596,-0.4694915254237288,-0.4711864406779661,-0.4745762711864407,-0.4694915254237288,-0.5067796610169492,-0.4542372881355932,-0.43050847457627117,-0.45084745762711864,-0.4610169491525424,-0.4610169491525424,-0.46779661016949153,0.5508474576271186]","[-0.9137931034482759,-0.9051724137931034,-0.9367816091954023,-0.9166666666666666,-0.9195402298850575,-0.9252873563218391,-0.9080459770114943,-0.9051724137931034,-0.9281609195402298,-0.9540229885057471,-0.9511494252873564,-0.9454022988505747,-0.9511494252873564,-0.9339080459770115,-0.9137931034482759,-0.9511494252873564,-0.9166666666666666,-0.8936781609195402,-0.882183908045977,-0.9137931034482759,-0.9166666666666666,-0.9022988505747126,-0.8879310344827587,-0.8793103448275862,-0.8793103448275862,-0.9339080459770115,-0.9137931034482759,-0.9137931034482759,-0.882183908045977,-0.8879310344827587,-0.8563218390804598,-0.8706896551724138,-0.8706896551724138,-0.896551724137931,-0.896551724137931,-0.9022988505747126,-0.9051724137931034,-0.8764367816091954,-0.9051724137931034,-0.8908045977011494,-0.9109195402298851,-0.9080459770114943,-0.8994252873563219,-0.8850574712643678,-0.8879310344827587]","[1,1,1,1,1,1,1,1,1,1,1,1,1,1,1,1,1,1,1,1,1,1,1,1,1,1,1,1,1,1,1,1,1,1,1,1,1,1,1,1,1,1,1,1,1]","[0,0,0,0,0,0,0,0,0,0,0,0,0,0,0,0,0,0,0,0,0,0,0,0,0,0,0,0,0,0,0,0,0,0,0,0,0,0,0,0,0,0,0,0,0]","[0,0,0,0,0,0,0,0,0,0,0,0,0,0,0,0,0,0,0,0,0,0,0,0,0,0,0,0,0,0,0,0,0,0,0,0,0,0,0,0,0,0,0,0,0]","[0.6069999999999709,0.8389999999999418,1.0399999999999636,1.2400000000002365,1.4400000000000546,1.6570000000001528,1.8550000000000182,2.05600000000004,2.2400000000002365,2.4400000000000546,2.673999999999978,2.8890000000001237,3.0900000000001455,3.2910000000001673,3.691000000000713,4.039000000000215,4.289999999999964,4.523999999999887,4.807999999999993,5.1720000000000255,5.606999999999971,6.023000000000138,6.474999999999909,6.907000000000153,7.389999999999873,7.875,8.438000000000102,8.907000000000153,9.173999999999978,9.425000000000182,9.990999999999985,10.641000000000076,10.873000000000047,11.088999999999942,11.340000000000146,11.572000000000116,12.188000000000102,13.157000000000153,14.123000000000047,14.759000000000015,15.523999999999887,16.53800000000001,17.007000000000062,17.519999999999982,18.47400000000016]",228.886,230.392,13,0,13,0,1,,,,,,,,
,,example_1,1,2020-01-01_12h00.00.000,BART_v3-2_touch,2023.2.2,iPad,45.45454545,,,,,,,,,230.393,231.391,,,,,,,,,,,,,,,,,,,,,,,,,,,,231.391,237,22,"[0.46499999999999997,0.515]",210,TRUE,21,"[-0.5338983050847458,-0.49830508474576274,-0.5169491525423728,-0.5220338983050847,-0.5305084745762711,-0.5186440677966102,-0.5050847457627119,-0.5050847457627119,-0.511864406779661,-0.5101694915254237,-0.5135593220338983,-0.5169491525423728,-0.5101694915254237,-0.511864406779661,-0.5135593220338983,-0.5135593220338983,-0.5050847457627119,-0.5050847457627119,-0.5,-0.5067796610169492,-0.5084745762711864,-0.5152542372881356]","[-0.9166666666666666,-0.8850574712643678,-0.9683908045977011,-0.9339080459770115,-0.9310344827586207,-0.9109195402298851,-0.9022988505747126,-0.8994252873563219,-0.9051724137931034,-0.9080459770114943,-0.9166666666666666,-0.9166666666666666,-0.9051724137931034,-0.9166666666666666,-0.9137931034482759,-0.9109195402298851,-0.9022988505747126,-0.8994252873563219,-0.8879310344827587,-0.9022988505747126,-0.9252873563218391,-0.9224137931034483]","[1,1,1,1,1,1,1,1,1,1,1,1,1,1,1,1,1,1,1,1,1,1]","[0,0,0,0,0,0,0,0,0,0,0,0,0,0,0,0,0,0,0,0,0,0]","[0,0,0,0,0,0,0,0,0,0,0,0,0,0,0,0,0,0,0,0,0,0]","[0.9230000000002292,1.1870000000003529,1.4039999999999964,1.6050000000000182,1.80600000000004,2.005000000000109,2.2049999999999272,2.4050000000002,2.588000000000193,2.788000000000011,2.9880000000002838,3.2049999999999272,3.38799999999992,3.5710000000003674,3.7890000000002146,3.9710000000000036,4.1710000000002765,4.371000000000095,4.639000000000124,5.088999999999942,5.354000000000269,5.604000000000269]",237,238.49,14,0,14,0,1,,,,,,,,
,,example_1,1,2020-01-01_12h00.00.000,BART_v3-2_touch,2023.2.2,iPad,45.45454545,,,,,,,,,238.491,239.49,,,,,,,,,,,,,,,,,,,,,,,,,,,,239.49,250.918,34,"[0.66,0.71]",340,FALSE,48,"[-0.5661016949152542,-0.5457627118644067,-0.5389830508474577,-0.5389830508474577,-0.5423728813559322,-0.5457627118644067,-0.5474576271186441,-0.5559322033898305,-0.559322033898305,-0.5271186440677966,-0.5101694915254237,-0.49830508474576274,-0.49830508474576274,-0.49322033898305084,-0.4830508474576271,-0.48983050847457626,-0.4830508474576271,-0.4915254237288136,-0.5016949152542373,-0.48135593220338985,-0.47966101694915253,-0.49322033898305084,-0.49322033898305084,-0.4847457627118644,-0.47966101694915253,-0.47796610169491527,-0.4745762711864407,-0.47966101694915253,-0.47966101694915253,-0.48135593220338985,-0.46779661016949153,-0.49491525423728816,-0.47966101694915253,-0.4745762711864407,0.523728813559322]","[-0.9224137931034483,-0.9224137931034483,-0.9310344827586207,-0.9310344827586207,-0.9281609195402298,-0.9252873563218391,-0.9109195402298851,-0.9109195402298851,-0.9252873563218391,-0.9367816091954023,-0.9137931034482759,-0.9080459770114943,-0.8879310344827587,-0.9051724137931034,-0.8994252873563219,-0.9080459770114943,-0.896551724137931,-0.9051724137931034,-0.9367816091954023,-0.9252873563218391,-0.9109195402298851,-0.9109195402298851,-0.9109195402298851,-0.8936781609195402,-0.882183908045977,-0.8793103448275862,-0.8706896551724138,-0.8764367816091954,-0.882183908045977,-0.882183908045977,-0.853448275862069,-0.8850574712643678,-0.8735632183908046,-0.8936781609195402,-0.8764367816091954]","[1,1,1,1,1,1,1,1,1,1,1,1,1,1,1,1,1,1,1,1,1,1,1,1,1,1,1,1,1,1,1,1,1,1,1]","[0,0,0,0,0,0,0,0,0,0,0,0,0,0,0,0,0,0,0,0,0,0,0,0,0,0,0,0,0,0,0,0,0,0,0]","[0,0,0,0,0,0,0,0,0,0,0,0,0,0,0,0,0,0,0,0,0,0,0,0,0,0,0,0,0,0,0,0,0,0,0]","[0.5770000000002256,0.7910000000001673,0.9750000000003638,1.1390000000001237,1.3250000000002728,1.4920000000001892,1.6580000000003565,1.8400000000001455,2.0419999999999163,2.4090000000001055,2.8420000000000982,3.2260000000001128,3.425000000000182,3.624000000000251,3.825000000000273,4.008000000000266,4.225000000000364,4.64200000000028,5.143000000000029,5.626999999999953,6.108000000000175,6.342000000000098,6.541000000000167,6.7409999999999854,6.958000000000084,7.208000000000084,7.423999999999978,7.608000000000175,7.807999999999993,8.025000000000091,8.34100000000035,8.858000000000175,9.889999999999873,10.492999999999938,11.42599999999993]",250.918,252.406,15,0,15,0,1,,,,,,,,
,,example_1,1,2020-01-01_12h00.00.000,BART_v3-2_touch,2023.2.2,iPad,45.45454545,,,,,,,,,252.408,253.407,,,,,,,,,,,,,,,,,,,,,,,,,,,,253.407,268.267,45,"[0.825,0.875]",450,FALSE,77,"[-0.4016949152542373,-0.4491525423728814,-0.44745762711864406,-0.4610169491525424,-0.46271186440677964,-0.4491525423728814,-0.4440677966101695,-0.45084745762711864,-0.45084745762711864,-0.46271186440677964,-0.4694915254237288,-0.4728813559322034,-0.47627118644067795,-0.46440677966101696,-0.4711864406779661,-0.4711864406779661,-0.4711864406779661,-0.4694915254237288,-0.4661016949152542,-0.46271186440677964,-0.46271186440677964,-0.46440677966101696,-0.4711864406779661,-0.4661016949152542,-0.45932203389830506,-0.46271186440677964,-0.4728813559322034,-0.47627118644067795,-0.4661016949152542,-0.47966101694915253,-0.46440677966101696,-0.47796610169491527,-0.46779661016949153,-0.46440677966101696,-0.47796610169491527,-0.46271186440677964,-0.46271186440677964,-0.4610169491525424,-0.47796610169491527,-0.4491525423728814,-0.45254237288135596,-0.4440677966101695,-0.4694915254237288,-0.4559322033898305,-0.48135593220338985,0.5101694915254237]","[-0.8764367816091954,-0.9137931034482759,-0.9540229885057471,-0.9540229885057471,-0.9396551724137931,-0.9252873563218391,-0.9626436781609196,-0.9454022988505747,-0.9396551724137931,-0.9367816091954023,-0.9195402298850575,-0.9080459770114943,-0.9339080459770115,-0.9252873563218391,-0.9195402298850575,-0.896551724137931,-0.9022988505747126,-0.9080459770114943,-0.9281609195402298,-0.8994252873563219,-0.9022988505747126,-0.9195402298850575,-0.9195402298850575,-0.9109195402298851,-0.8735632183908046,-0.9224137931034483,-0.9224137931034483,-0.9252873563218391,-0.9051724137931034,-0.9310344827586207,-0.9080459770114943,-0.9454022988505747,-0.9195402298850575,-0.882183908045977,-0.9022988505747126,-0.8994252873563219,-0.8994252873563219,-0.8994252873563219,-0.896551724137931,-0.8706896551724138,-0.8850574712643678,-0.896551724137931,-0.882183908045977,-0.8649425287356322,-0.8735632183908046,-0.8850574712643678]","[1,1,1,1,1,1,1,1,1,1,1,1,1,1,1,1,1,1,1,1,1,1,1,1,1,1,1,1,1,1,1,1,1,1,1,1,1,1,1,1,1,1,1,1,1,1]","[0,0,0,0,0,0,0,0,0,0,0,0,0,0,0,0,0,0,0,0,0,0,0,0,0,0,0,0,0,0,0,0,0,0,0,0,0,0,0,0,0,0,0,0,0,0]","[0,0,0,0,0,0,0,0,0,0,0,0,0,0,0,0,0,0,0,0,0,0,0,0,0,0,0,0,0,0,0,0,0,0,0,0,0,0,0,0,0,0,0,0,0,0]","[0.6219999999998436,0.8530000000000655,1.055000000000291,1.2539999999999054,1.4380000000001019,1.5880000000001928,1.7690000000002328,1.9710000000000036,2.1710000000002765,2.38799999999992,2.5700000000001637,2.788000000000011,2.9699999999998,3.1710000000002765,3.369999999999891,3.5850000000000364,3.787000000000262,3.98700000000008,4.186000000000149,4.418999999999869,4.619999999999891,4.820000000000164,5.037000000000262,5.2719999999999345,5.554000000000087,5.838000000000193,6.086999999999989,6.287000000000262,6.471000000000004,6.855000000000018,7.13799999999992,7.505000000000109,7.836999999999989,8.421000000000276,8.954999999999927,9.2199999999998,9.420000000000073,9.61999999999989,10.052000000000135,10.639000000000124,11.351999999999862,11.838000000000193,12.73700000000008,13.584000000000287,14.351999999999862,14.855000000000018]",268.268,269.772,16,0,16,0,1,,,,,,,,
,,example_1,1,2020-01-01_12h00.00.000,BART_v3-2_touch,2023.2.2,iPad,45.45454545,,,,,,,,,269.773,270.772,,,,,,,,,,,,,,,,,,,,,,,,,,,,270.772,282.05,44,"[0.795,0.845]",430,TRUE,43,"[-0.5372881355932203,-0.5101694915254237,-0.5220338983050847,-0.5271186440677966,-0.523728813559322,-0.5220338983050847,-0.5288135593220339,-0.5220338983050847,-0.523728813559322,-0.5152542372881356,-0.5067796610169492,-0.4966101694915254,-0.488135593220339,-0.4847457627118644,-0.4847457627118644,-0.49830508474576274,-0.5050847457627119,-0.4966101694915254,-0.49322033898305084,-0.5084745762711864,-0.5101694915254237,-0.5152542372881356,-0.5135593220338983,-0.5152542372881356,-0.5186440677966102,-0.5203389830508475,-0.5288135593220339,-0.5288135593220339,-0.523728813559322,-0.5169491525423728,-0.5305084745762711,-0.5271186440677966,-0.5220338983050847,-0.5135593220338983,-0.5220338983050847,-0.5406779661016949,-0.5254237288135594,-0.5305084745762711,-0.523728813559322,-0.5220338983050847,-0.5254237288135594,-0.5203389830508475,-0.5338983050847458,-0.5186440677966102]","[-0.9712643678160919,-0.9109195402298851,-0.9482758620689655,-0.9396551724137931,-0.9137931034482759,-0.9109195402298851,-0.9339080459770115,-0.9454022988505747,-0.9540229885057471,-0.9712643678160919,-0.9597701149425287,-0.9310344827586207,-0.9109195402298851,-0.9109195402298851,-0.9166666666666666,-0.9367816091954023,-0.9367816091954023,-0.9195402298850575,-0.9080459770114943,-0.9166666666666666,-0.9166666666666666,-0.9195402298850575,-0.9109195402298851,-0.9051724137931034,-0.9080459770114943,-0.9166666666666666,-0.9339080459770115,-0.9109195402298851,-0.9080459770114943,-0.9022988505747126,-0.9195402298850575,-0.9310344827586207,-0.9109195402298851,-0.896551724137931,-0.882183908045977,-0.9137931034482759,-0.8908045977011494,-0.8879310344827587,-0.8793103448275862,-0.8879310344827587,-0.8908045977011494,-0.8936781609195402,-0.8994252873563219,-0.8908045977011494]","[1,1,1,1,1,1,1,1,1,1,1,1,1,1,1,1,1,1,1,1,1,1,1,1,1,1,1,1,1,1,1,1,1,1,1,1,1,1,1,1,1,1,1,1]","[0,0,0,0,0,0,0,0,0,0,0,0,0,0,0,0,0,0,0,0,0,0,0,0,0,0,0,0,0,0,0,0,0,0,0,0,0,0,0,0,0,0,0,0]","[0,0,0,0,0,0,0,0,0,0,0,0,0,0,0,0,0,0,0,0,0,0,0,0,0,0,0,0,0,0,0,0,0,0,0,0,0,0,0,0,0,0,0,0]","[0.5230000000001382,0.7559999999998581,0.956000000000131,1.137000000000171,1.3220000000001164,1.5219999999999345,1.7210000000000036,1.9220000000000255,2.1390000000001237,2.355000000000018,2.55600000000004,2.755000000000109,2.956000000000131,3.155999999999949,3.355000000000018,3.5390000000002146,3.737999999999829,3.9549999999999272,4.155999999999949,4.355999999999767,4.554999999999836,4.755000000000109,4.98700000000008,5.289999999999964,5.639000000000124,5.820999999999913,5.987999999999829,6.188000000000102,6.405999999999949,6.621000000000095,6.871999999999844,7.1550000000002,7.438999999999851,7.670999999999822,8.190000000000055,8.55600000000004,8.771000000000186,8.972000000000207,9.170000000000073,9.590000000000146,10.123000000000047,10.554000000000087,10.771000000000186,11.273999999999887]",282.05,283.538,17,0,17,0,1,,,,,,,,
,,example_1,1,2020-01-01_12h00.00.000,BART_v3-2_touch,2023.2.2,iPad,45.45454545,,,,,,,,,283.538,284.538,,,,,,,,,,,,,,,,,,,,,,,,,,,,284.538,299.131,43,"[0.795,0.845]",430,FALSE,81,"[-0.4423728813559322,-0.4406779661016949,-0.42542372881355933,-0.4271186440677966,-0.43728813559322033,-0.4322033898305085,-0.423728813559322,-0.4152542372881356,-0.4186440677966102,-0.42033898305084744,-0.42033898305084744,-0.423728813559322,-0.4271186440677966,-0.43050847457627117,-0.4288135593220339,-0.4186440677966102,-0.411864406779661,-0.4067796610169492,-0.4033898305084746,-0.4135593220338983,-0.4288135593220339,-0.4186440677966102,-0.4135593220338983,-0.4135593220338983,-0.4135593220338983,-0.4152542372881356,-0.42203389830508475,-0.423728813559322,-0.43050847457627117,-0.43728813559322033,-0.43389830508474575,-0.4288135593220339,-0.46271186440677964,-0.46271186440677964,-0.4610169491525424,-0.43898305084745765,-0.43728813559322033,-0.43389830508474575,-0.46440677966101696,-0.4423728813559322,-0.4661016949152542,-0.4491525423728814,-0.42542372881355933,0.5152542372881356]","[-0.8649425287356322,-0.9109195402298851,-0.9511494252873564,-0.9281609195402298,-0.9597701149425287,-0.9281609195402298,-0.9310344827586207,-0.9022988505747126,-0.9281609195402298,-0.9080459770114943,-0.9166666666666666,-0.9166666666666666,-0.9224137931034483,-0.9195402298850575,-0.9022988505747126,-0.882183908045977,-0.8735632183908046,-0.8994252873563219,-0.8936781609195402,-0.8994252873563219,-0.896551724137931,-0.9051724137931034,-0.9367816091954023,-0.9540229885057471,-0.9367816091954023,-0.9166666666666666,-0.9252873563218391,-0.9339080459770115,-0.9597701149425287,-0.9540229885057471,-0.9310344827586207,-0.9080459770114943,-0.9109195402298851,-0.8477011494252874,-0.867816091954023,-0.853448275862069,-0.853448275862069,-0.8333333333333334,-0.8706896551724138,-0.867816091954023,-0.8936781609195402,-0.867816091954023,-0.8850574712643678,-0.8793103448275862]","[1,1,1,1,1,1,1,1,1,1,1,1,1,1,1,1,1,1,1,1,1,1,1,1,1,1,1,1,1,1,1,1,1,1,1,1,1,1,1,1,1,1,1,1]","[0,0,0,0,0,0,0,0,0,0,0,0,0,0,0,0,0,0,0,0,0,0,0,0,0,0,0,0,0,0,0,0,0,0,0,0,0,0,0,0,0,0,0,0]","[0,0,0,0,0,0,0,0,0,0,0,0,0,0,0,0,0,0,0,0,0,0,0,0,0,0,0,0,0,0,0,0,0,0,0,0,0,0,0,0,0,0,0,0]","[0.5899999999996908,0.80600000000004,0.9899999999997817,1.1739999999999782,1.3919999999998254,1.5740000000000691,1.7570000000000618,1.9409999999998035,2.105999999999767,2.3079999999999927,2.4909999999999854,2.673999999999978,2.856999999999971,3.0579999999999927,3.257000000000062,3.45699999999988,3.655999999999949,3.856999999999971,4.074000000000069,4.289999999999964,4.53899999999976,4.773999999999887,5.039999999999964,5.239000000000033,5.4229999999997744,5.606999999999971,5.822999999999865,6.039999999999964,6.239000000000033,6.473999999999705,6.690000000000055,6.9909999999999854,7.407999999999902,7.824000000000069,8.273999999999887,9.35799999999972,9.871999999999844,10.639999999999873,11.507000000000062,12.021999999999935,13.023999999999887,13.507000000000062,14.090999999999894,14.58999999999969]",299.131,300.637,18,0,18,0,1,,,,,,,,
,,example_1,1,2020-01-01_12h00.00.000,BART_v3-2_touch,2023.2.2,iPad,45.45454545,,,,,,,,,300.637,301.636,,,,,,,,,,,,,,,,,,,,,,,,,,,,301.636,307.146,8,"[0.15,0.305]",70,TRUE,7,"[-0.4694915254237288,-0.49322033898305084,-0.4576271186440678,-0.4491525423728814,-0.45084745762711864,-0.45254237288135596,-0.4423728813559322,-0.43728813559322033,-0.43559322033898307,-0.411864406779661,-0.43050847457627117]","[-0.8764367816091954,-0.9166666666666666,-0.9339080459770115,-0.9224137931034483,-0.9339080459770115,-0.9971264367816092,-0.9971264367816092,-0.9712643678160919,-0.9827586206896551,-0.9482758620689655,-0.9568965517241379]","[1,1,1,1,1,1,1,1,1,1,1]","[0,0,0,0,0,0,0,0,0,0,0]","[0,0,0,0,0,0,0,0,0,0,0]","[3.4220000000000255,3.688999999999851,3.9049999999997453,4.088999999999942,4.2719999999999345,4.504999999999654,4.7029999999999745,4.904999999999745,5.105000000000018,5.304999999999836,5.504999999999654]",307.146,308.636,19,0,19,0,1,,,,,,,,
,,example_1,1,2020-01-01_12h00.00.000,BART_v3-2_touch,2023.2.2,iPad,45.45454545,,,,,,,,,308.637,309.635,,,,,,,,,,,,,,,,,,,,,,,,,,,,309.635,326.079,53,"[0.945,0.9949999999999999]",530,FALSE,97,"[-0.4101694915254237,-0.4322033898305085,-0.4440677966101695,-0.4271186440677966,-0.43389830508474575,-0.43389830508474575,-0.4440677966101695,-0.4491525423728814,-0.4661016949152542,-0.4661016949152542,-0.4542372881355932,-0.4423728813559322,-0.4559322033898305,-0.4610169491525424,-0.4576271186440678,-0.4559322033898305,-0.43050847457627117,-0.43559322033898307,-0.4406779661016949,-0.4559322033898305,-0.45254237288135596,-0.4491525423728814,-0.45254237288135596,-0.4559322033898305,-0.4271186440677966,-0.44745762711864406,-0.4440677966101695,-0.4440677966101695,-0.43898305084745765,-0.43389830508474575,-0.4559322033898305,-0.43898305084745765,-0.45254237288135596,-0.45932203389830506,-0.4661016949152542,-0.47627118644067795,-0.4728813559322034,-0.4711864406779661,-0.45932203389830506,-0.47627118644067795,-0.4576271186440678,-0.46440677966101696,-0.4728813559322034,-0.47796610169491527,-0.4830508474576271,-0.48135593220338985,-0.488135593220339,-0.4864406779661017,-0.4915254237288136,-0.4847457627118644,-0.4745762711864407,-0.5508474576271186,-0.5271186440677966,-0.5152542372881356,0.46271186440677964]","[-0.867816091954023,-0.8132183908045977,-0.8706896551724138,-0.8333333333333334,-0.8591954022988506,-0.8793103448275862,-0.9080459770114943,-0.9051724137931034,-0.9252873563218391,-0.9022988505747126,-0.8908045977011494,-0.882183908045977,-0.9166666666666666,-0.882183908045977,-0.9022988505747126,-0.8850574712643678,-0.9109195402298851,-0.896551724137931,-0.896551724137931,-0.9022988505747126,-0.8879310344827587,-0.8850574712643678,-0.9195402298850575,-0.9022988505747126,-0.8620689655172413,-0.9195402298850575,-0.9109195402298851,-0.9281609195402298,-0.9195402298850575,-0.9339080459770115,-0.9712643678160919,-0.9137931034482759,-0.8505747126436781,-0.8879310344827587,-0.8620689655172413,-0.8563218390804598,-0.853448275862069,-0.8936781609195402,-0.8649425287356322,-0.8505747126436781,-0.8419540229885057,-0.8620689655172413,-0.8764367816091954,-0.8764367816091954,-0.8879310344827587,-0.8994252873563219,-0.8879310344827587,-0.8994252873563219,-0.8850574712643678,-0.8936781609195402,-0.8620689655172413,-0.9281609195402298,-0.9166666666666666,-0.896551724137931,-0.9252873563218391]","[1,1,1,1,1,1,1,1,1,1,1,1,1,1,1,1,1,1,1,1,1,1,1,1,1,1,1,1,1,1,1,1,1,1,1,1,1,1,1,1,1,1,1,1,1,1,1,1,1,1,1,1,1,1,1]","[0,0,0,0,0,0,0,0,0,0,0,0,0,0,0,0,0,0,0,0,0,0,0,0,0,0,0,0,0,0,0,0,0,0,0,0,0,0,0,0,0,0,0,0,0,0,0,0,0,0,0,0,0,0,0]","[0,0,0,0,0,0,0,0,0,0,0,0,0,0,0,0,0,0,0,0,0,0,0,0,0,0,0,0,0,0,0,0,0,0,0,0,0,0,0,0,0,0,0,0,0,0,0,0,0,0,0,0,0,0,0]","[0.4570000000003347,0.6760000000003856,0.8590000000003783,1.0750000000002728,1.2760000000002947,1.4590000000002874,1.6580000000003565,1.8760000000002037,2.1400000000003274,2.3580000000001746,2.591000000000804,2.792000000000371,3.0090000000000146,3.242000000000189,3.4420000000000073,3.673000000000229,3.875,4.092000000000098,4.291000000000167,4.523999999999887,4.758000000000266,4.972999999999956,5.175000000000182,5.425000000000182,5.624000000000251,5.9080000000003565,6.14200000000028,6.425000000000182,6.706000000000131,6.923000000000229,7.125,7.523000000000138,7.858000000000175,8.039000000000215,8.275000000000091,8.458000000000084,8.672000000000025,9.057999999999993,9.472999999999956,9.844000000000051,10.108000000000175,10.307000000000244,10.490999999999985,10.673999999999978,10.874000000000251,11.039999999999964,11.291000000000167,11.722999999999956,12.126000000000204,12.559999999999945,13.059999999999945,14.609000000000378,15.021999999999935,15.791000000000167,16.44100000000026]",326.079,327.567,20,0,20,0,1,,,,,,,,
,,example_1,1,2020-01-01_12h00.00.000,BART_v3-2_touch,2023.2.2,iPad,45.45454545,,,,,,,,,327.568,328.567,,,,,,,,,,,,,,,,,,,,,,,,,,,,328.568,342.194,46,"[0.84,0.8899999999999999]",460,FALSE,86,"[-0.4610169491525424,-0.5033898305084745,-0.5,-0.49830508474576274,-0.5016949152542373,-0.5169491525423728,-0.5220338983050847,-0.5169491525423728,-0.5305084745762711,-0.5254237288135594,-0.5186440677966102,-0.5169491525423728,-0.5101694915254237,-0.5033898305084745,-0.4966101694915254,-0.49830508474576274,-0.5,-0.5016949152542373,-0.5050847457627119,-0.5067796610169492,-0.49830508474576274,-0.49491525423728816,-0.49491525423728816,-0.49491525423728816,-0.4966101694915254,-0.4966101694915254,-0.488135593220339,-0.49322033898305084,-0.488135593220339,-0.4864406779661017,-0.4830508474576271,-0.49322033898305084,-0.49491525423728816,-0.4847457627118644,-0.488135593220339,-0.4864406779661017,-0.4966101694915254,-0.4966101694915254,-0.49830508474576274,-0.49322033898305084,-0.48983050847457626,-0.49830508474576274,-0.5152542372881356,-0.5152542372881356,-0.5067796610169492,-0.5067796610169492,0.5322033898305085]","[-0.8735632183908046,-0.9022988505747126,-0.9109195402298851,-0.8620689655172413,-0.8793103448275862,-0.8908045977011494,-0.9109195402298851,-0.9339080459770115,-0.9310344827586207,-0.9367816091954023,-0.9396551724137931,-0.9511494252873564,-0.9540229885057471,-0.9339080459770115,-0.9224137931034483,-0.9224137931034483,-0.9252873563218391,-0.9224137931034483,-0.9281609195402298,-0.9224137931034483,-0.9109195402298851,-0.9109195402298851,-0.9252873563218391,-0.9224137931034483,-0.9137931034482759,-0.9022988505747126,-0.8908045977011494,-0.9022988505747126,-0.9051724137931034,-0.8850574712643678,-0.8879310344827587,-0.9022988505747126,-0.9080459770114943,-0.8994252873563219,-0.896551724137931,-0.8649425287356322,-0.8936781609195402,-0.8793103448275862,-0.8850574712643678,-0.8850574712643678,-0.8706896551724138,-0.8706896551724138,-0.867816091954023,-0.8591954022988506,-0.867816091954023,-0.8477011494252874,-0.882183908045977]","[1,1,1,1,1,1,1,1,1,1,1,1,1,1,1,1,1,1,1,1,1,1,1,1,1,1,1,1,1,1,1,1,1,1,1,1,1,1,1,1,1,1,1,1,1,1,1]","[0,0,0,0,0,0,0,0,0,0,0,0,0,0,0,0,0,0,0,0,0,0,0,0,0,0,0,0,0,0,0,0,0,0,0,0,0,0,0,0,0,0,0,0,0,0,0]","[0,0,0,0,0,0,0,0,0,0,0,0,0,0,0,0,0,0,0,0,0,0,0,0,0,0,0,0,0,0,0,0,0,0,0,0,0,0,0,0,0,0,0,0,0,0,0]","[0.7220000000002074,0.9570000000003347,1.1720000000000255,1.3380000000001928,1.5190000000002328,1.705000000000382,1.9050000000002,2.088999999999942,2.2720000000003893,2.455000000000382,2.6700000000000728,2.855000000000018,3.055000000000291,3.255000000000109,3.4700000000002547,3.6550000000002,3.8880000000003747,4.088000000000193,4.2710000000001855,4.470000000000255,4.6720000000000255,4.887000000000171,5.072000000000116,5.289000000000215,5.520000000000437,5.721000000000004,5.920000000000073,6.105000000000018,6.322000000000116,6.555000000000291,6.755000000000109,6.971000000000004,7.238000000000284,7.690000000000055,8.105000000000018,8.638000000000375,9.305000000000291,9.572000000000116,9.769000000000233,9.98700000000008,10.25500000000011,10.471000000000004,10.75500000000011,10.955000000000382,11.957000000000335,12.736000000000331,13.621000000000095]",342.194,343.69,21,0,21,0,1,,,,,,,,
,,example_1,1,2020-01-01_12h00.00.000,BART_v3-2_touch,2023.2.2,iPad,45.45454545,,,,,,,,,343.692,344.683,,,,,,,,,,,,,,,,,,,,,,,,,,,,344.683,361.176,52,"[0.93,0.98]",520,FALSE,119,"[-0.42542372881355933,-0.4440677966101695,-0.4711864406779661,-0.47966101694915253,-0.4830508474576271,-0.488135593220339,-0.4915254237288136,-0.49322033898305084,-0.49322033898305084,-0.48983050847457626,-0.47966101694915253,-0.47796610169491527,-0.4745762711864407,-0.4661016949152542,-0.4610169491525424,-0.45932203389830506,-0.45932203389830506,-0.46440677966101696,-0.45254237288135596,-0.4728813559322034,-0.4745762711864407,-0.47796610169491527,-0.46779661016949153,-0.45254237288135596,-0.4559322033898305,-0.4559322033898305,-0.4542372881355932,-0.45254237288135596,-0.4440677966101695,-0.4406779661016949,-0.43559322033898307,-0.4440677966101695,-0.43728813559322033,-0.43559322033898307,-0.4491525423728814,-0.45254237288135596,-0.44745762711864406,-0.44745762711864406,-0.4728813559322034,-0.46779661016949153,-0.46271186440677964,-0.4576271186440678,-0.46779661016949153,-0.4830508474576271,-0.47966101694915253,-0.4847457627118644,-0.47796610169491527,-0.49830508474576274,-0.5033898305084745,-0.5152542372881356,-0.5033898305084745,-0.49491525423728816,0.49322033898305084]","[-0.8793103448275862,-0.9281609195402298,-0.9454022988505747,-0.9482758620689655,-0.9540229885057471,-0.9511494252873564,-0.9396551724137931,-0.9396551724137931,-0.9281609195402298,-0.9137931034482759,-0.9080459770114943,-0.9224137931034483,-0.9195402298850575,-0.9109195402298851,-0.9109195402298851,-0.9137931034482759,-0.9022988505747126,-0.8879310344827587,-0.9166666666666666,-0.9109195402298851,-0.9195402298850575,-0.9080459770114943,-0.8706896551724138,-0.9051724137931034,-0.9195402298850575,-0.9080459770114943,-0.9195402298850575,-0.9109195402298851,-0.9137931034482759,-0.9224137931034483,-0.8879310344827587,-0.8879310344827587,-0.8879310344827587,-0.8879310344827587,-0.9080459770114943,-0.9022988505747126,-0.9022988505747126,-0.8706896551724138,-0.896551724137931,-0.9109195402298851,-0.896551724137931,-0.8735632183908046,-0.8735632183908046,-0.8620689655172413,-0.8735632183908046,-0.8879310344827587,-0.8850574712643678,-0.8850574712643678,-0.896551724137931,-0.896551724137931,-0.9022988505747126,-0.8793103448275862,-0.8879310344827587]","[1,1,1,1,1,1,1,1,1,1,1,1,1,1,1,1,1,1,1,1,1,1,1,1,1,1,1,1,1,1,1,1,1,1,1,1,1,1,1,1,1,1,1,1,1,1,1,1,1,1,1,1,1]","[0,0,0,0,0,0,0,0,0,0,0,0,0,0,0,0,0,0,0,0,0,0,0,0,0,0,0,0,0,0,0,0,0,0,0,0,0,0,0,0,0,0,0,0,0,0,0,0,0,0,0,0,0]","[0,0,0,0,0,0,0,0,0,0,0,0,0,0,0,0,0,0,0,0,0,0,0,0,0,0,0,0,0,0,0,0,0,0,0,0,0,0,0,0,0,0,0,0,0,0,0,0,0,0,0,0,0]","[0.5029999999997017,0.7189999999995962,0.9049999999997453,1.0709999999999127,1.237999999999829,1.4379999999996471,1.638999999999669,1.837999999999738,2.020999999999731,2.2049999999999272,2.4049999999997453,2.6019999999998618,2.8029999999998836,2.9869999999996253,3.186999999999898,3.38799999999992,3.587999999999738,3.787999999999556,3.9849999999996726,4.170999999999822,4.37099999999964,4.570999999999913,4.804999999999836,5.037999999999556,5.270999999999731,5.485999999999876,5.7029999999999745,5.902999999999793,6.12099999999964,6.304999999999836,6.504999999999654,6.685999999999694,6.87099999999964,7.070999999999913,7.270999999999731,7.471000000000004,7.687999999999647,7.9539999999997235,8.437999999999647,8.835999999999785,9.203999999999724,9.471000000000004,9.953999999999724,10.471000000000004,10.985999999999876,11.554999999999836,12.138999999999669,13.054999999999836,14.138999999999669,14.503999999999905,15.554999999999836,15.9399999999996,16.48799999999983]",361.177,362.665,22,0,22,0,1,,,,,,,,
,,example_1,1,2020-01-01_12h00.00.000,BART_v3-2_touch,2023.2.2,iPad,45.45454545,,,,,,,,,362.666,363.665,,,,,,,,,,,,,,,,,,,,,,,,,,,,363.665,366.125,9,"[0.15,0.32]",80,TRUE,8,"[-0.5152542372881356,-0.5372881355932203,-0.5220338983050847,-0.5101694915254237,-0.5067796610169492,-0.5135593220338983,-0.5254237288135594,-0.5186440677966102,-0.5050847457627119]","[-0.8649425287356322,-0.8908045977011494,-0.8764367816091954,-0.8735632183908046,-0.9310344827586207,-0.896551724137931,-0.9022988505747126,-0.9080459770114943,-0.9109195402298851]","[1,1,1,1,1,1,1,1,1]","[0,0,0,0,0,0,0,0,0]","[0,0,0,0,0,0,0,0,0]","[0.7880000000000109,1.0209999999997308,1.2199999999998,1.401999999999589,1.6019999999998618,1.8219999999996617,2.03899999999976,2.237999999999829,2.4549999999999272]",366.125,367.614,23,0,23,0,1,,,,,,,,
,,example_1,1,2020-01-01_12h00.00.000,BART_v3-2_touch,2023.2.2,iPad,45.45454545,,,,,,,,,367.615,368.615,,,,,,,,,,,,,,,,,,,,,,,,,,,,368.615,374.117,26,"[0.525,0.575]",250,TRUE,25,"[-0.4135593220338983,-0.4711864406779661,-0.5016949152542373,-0.5050847457627119,-0.5033898305084745,-0.49830508474576274,-0.4966101694915254,-0.49322033898305084,-0.49322033898305084,-0.488135593220339,-0.49322033898305084,-0.4915254237288136,-0.49491525423728816,-0.48983050847457626,-0.488135593220339,-0.4847457627118644,-0.48983050847457626,-0.48983050847457626,-0.4847457627118644,-0.4830508474576271,-0.4830508474576271,-0.48135593220338985,-0.47627118644067795,-0.47796610169491527,-0.48135593220338985,-0.48135593220338985]","[-0.8649425287356322,-0.9310344827586207,-0.9597701149425287,-0.9511494252873564,-0.9540229885057471,-0.9655172413793104,-0.9224137931034483,-0.9166666666666666,-0.9051724137931034,-0.8994252873563219,-0.9166666666666666,-0.9051724137931034,-0.9022988505747126,-0.8994252873563219,-0.8936781609195402,-0.8850574712643678,-0.8936781609195402,-0.8879310344827587,-0.8850574712643678,-0.8850574712643678,-0.882183908045977,-0.8735632183908046,-0.8735632183908046,-0.8764367816091954,-0.8735632183908046,-0.8764367816091954]","[1,1,1,1,1,1,1,1,1,1,1,1,1,1,1,1,1,1,1,1,1,1,1,1,1,1]","[0,0,0,0,0,0,0,0,0,0,0,0,0,0,0,0,0,0,0,0,0,0,0,0,0,0]","[0,0,0,0,0,0,0,0,0,0,0,0,0,0,0,0,0,0,0,0,0,0,0,0,0,0]","[0.69399999999996,0.8919999999998254,1.0920000000000982,1.275000000000091,1.4409999999998035,1.606999999999971,1.80600000000004,1.9919999999997344,2.156999999999698,2.3420000000000982,2.5589999999997417,2.7590000000000146,2.9409999999998035,3.1239999999997963,3.324999999999818,3.500999999999749,3.6839999999997417,3.8840000000000146,4.083999999999833,4.2840000000001055,4.500999999999749,4.701000000000022,4.90099999999984,5.083999999999833,5.2840000000001055,5.500999999999749]",374.117,375.614,24,0,24,0,1,,,,,,,,
,,example_1,1,2020-01-01_12h00.00.000,BART_v3-2_touch,2023.2.2,iPad,45.45454545,,,,,,,,,375.614,376.613,,,,,,,,,,,,,,,,,,,,,,,,,,,,376.613,383.95,33,"[0.63,0.6799999999999999]",320,TRUE,32,"[-0.45254237288135596,-0.46779661016949153,-0.47796610169491527,-0.4728813559322034,-0.4576271186440678,-0.44745762711864406,-0.4661016949152542,-0.47966101694915253,-0.4864406779661017,-0.48135593220338985,-0.488135593220339,-0.4966101694915254,-0.48983050847457626,-0.4915254237288136,-0.49322033898305084,-0.49322033898305084,-0.48983050847457626,-0.4830508474576271,-0.48135593220338985,-0.47796610169491527,-0.47627118644067795,-0.4711864406779661,-0.4661016949152542,-0.4661016949152542,-0.4694915254237288,-0.4694915254237288,-0.47966101694915253,-0.4745762711864407,-0.4661016949152542,-0.45084745762711864,-0.4440677966101695,-0.4457627118644068,-0.4491525423728814]","[-0.8735632183908046,-0.8793103448275862,-0.9166666666666666,-0.896551724137931,-0.8908045977011494,-0.8735632183908046,-0.8793103448275862,-0.8994252873563219,-0.9051724137931034,-0.9022988505747126,-0.9022988505747126,-0.9166666666666666,-0.9022988505747126,-0.9051724137931034,-0.9022988505747126,-0.8936781609195402,-0.8936781609195402,-0.8735632183908046,-0.882183908045977,-0.8879310344827587,-0.896551724137931,-0.896551724137931,-0.896551724137931,-0.8850574712643678,-0.8764367816091954,-0.8735632183908046,-0.8850574712643678,-0.882183908045977,-0.896551724137931,-0.8908045977011494,-0.8764367816091954,-0.882183908045977,-0.8908045977011494]","[1,1,1,1,1,1,1,1,1,1,1,1,1,1,1,1,1,1,1,1,1,1,1,1,1,1,1,1,1,1,1,1,1]","[0,0,0,0,0,0,0,0,0,0,0,0,0,0,0,0,0,0,0,0,0,0,0,0,0,0,0,0,0,0,0,0,0]","[0,0,0,0,0,0,0,0,0,0,0,0,0,0,0,0,0,0,0,0,0,0,0,0,0,0,0,0,0,0,0,0,0]","[0.5039999999999054,0.7190000000000509,0.918999999999869,1.1359999999999673,1.3359999999997854,1.518999999999778,1.719000000000051,1.9020000000000437,2.0850000000000364,2.268999999999778,2.469000000000051,2.6520000000000437,2.868999999999687,3.05199999999968,3.268999999999778,3.469000000000051,3.6520000000000437,3.8519999999998618,4.05199999999968,4.268999999999778,4.484999999999673,4.668999999999869,4.868999999999687,5.101999999999862,5.335000000000036,5.55199999999968,5.851999999999862,6.184999999999945,6.434999999999945,6.701999999999771,6.934999999999945,7.1349999999997635,7.335999999999785]",383.95,385.447,25,0,25,0,1,,,,,,,,
,,example_1,1,2020-01-01_12h00.00.000,BART_v3-2_touch,2023.2.2,iPad,45.45454545,,,,,,,,,385.447,386.446,,,,,,,,,,,,,,,,,,,,,,,,,,,,386.446,397.582,38,"[0.72,0.77]",380,FALSE,63,"[-0.4457627118644068,-0.4610169491525424,-0.47627118644067795,-0.47966101694915253,-0.4491525423728814,-0.45254237288135596,-0.45084745762711864,-0.45932203389830506,-0.46779661016949153,-0.4728813559322034,-0.4610169491525424,-0.4576271186440678,-0.45932203389830506,-0.4576271186440678,-0.46440677966101696,-0.4694915254237288,-0.46779661016949153,-0.46440677966101696,-0.46271186440677964,-0.46271186440677964,-0.45932203389830506,-0.45932203389830506,-0.45932203389830506,-0.45084745762711864,-0.4423728813559322,-0.4559322033898305,-0.4576271186440678,-0.4576271186440678,-0.45254237288135596,-0.45254237288135596,-0.4576271186440678,-0.4542372881355932,-0.4610169491525424,-0.45932203389830506,-0.4610169491525424,-0.4491525423728814,-0.45084745762711864,-0.43389830508474575,0.5033898305084745]","[-0.9482758620689655,-0.896551724137931,-0.9310344827586207,-0.9396551724137931,-0.882183908045977,-0.8879310344827587,-0.9109195402298851,-0.9195402298850575,-0.9252873563218391,-0.9511494252873564,-0.9252873563218391,-0.9252873563218391,-0.9224137931034483,-0.9195402298850575,-0.9166666666666666,-0.9252873563218391,-0.9252873563218391,-0.9224137931034483,-0.9166666666666666,-0.9195402298850575,-0.9166666666666666,-0.9224137931034483,-0.9166666666666666,-0.896551724137931,-0.8879310344827587,-0.8908045977011494,-0.9080459770114943,-0.9051724137931034,-0.9022988505747126,-0.8936781609195402,-0.8936781609195402,-0.8764367816091954,-0.8850574712643678,-0.867816091954023,-0.8850574712643678,-0.8706896551724138,-0.8735632183908046,-0.8591954022988506,-0.9252873563218391]","[1,1,1,1,1,1,1,1,1,1,1,1,1,1,1,1,1,1,1,1,1,1,1,1,1,1,1,1,1,1,1,1,1,1,1,1,1,1,1]","[0,0,0,0,0,0,0,0,0,0,0,0,0,0,0,0,0,0,0,0,0,0,0,0,0,0,0,0,0,0,0,0,0,0,0,0,0,0,0]","[0,0,0,0,0,0,0,0,0,0,0,0,0,0,0,0,0,0,0,0,0,0,0,0,0,0,0,0,0,0,0,0,0,0,0,0,0,0,0]","[0.25200000000040745,0.6350000000002183,0.8520000000003165,1.0520000000001346,1.2850000000003092,1.5020000000004075,1.6849999999999454,1.8850000000002183,2.068000000000211,2.3020000000001346,2.518000000000029,2.718000000000302,2.9020000000000437,3.0850000000000364,3.268000000000029,3.468000000000302,3.66800000000012,3.8520000000003165,4.052000000000135,4.268000000000029,4.468000000000302,4.684999999999945,4.902000000000044,5.135000000000218,5.368000000000393,5.635000000000218,5.885000000000218,6.118000000000393,6.318000000000211,6.518000000000029,6.934999999999945,7.268000000000029,7.468000000000302,7.701000000000022,7.951000000000022,8.768000000000029,9.385000000000218,10.368000000000393,11.135000000000218]",397.582,399.079,26,0,26,0,1,,,,,,,,
,,example_1,1,2020-01-01_12h00.00.000,BART_v3-2_touch,2023.2.2,iPad,45.45454545,,,,,,,,,399.079,400.078,,,,,,,,,,,,,,,,,,,,,,,,,,,,400.078,421.58,54,"[0.96,1.01]",540,FALSE,108,"[-0.5203389830508475,-0.4728813559322034,-0.46440677966101696,-0.47796610169491527,-0.47796610169491527,-0.4728813559322034,-0.4711864406779661,-0.46779661016949153,-0.45084745762711864,-0.43050847457627117,-0.43728813559322033,-0.43728813559322033,-0.43559322033898307,-0.4322033898305085,-0.4440677966101695,-0.45254237288135596,-0.4491525423728814,-0.4542372881355932,-0.4576271186440678,-0.4491525423728814,-0.44745762711864406,-0.4406779661016949,-0.43559322033898307,-0.4271186440677966,-0.4288135593220339,-0.4406779661016949,-0.4457627118644068,-0.43728813559322033,-0.43898305084745765,-0.4288135593220339,-0.45084745762711864,-0.4406779661016949,-0.4457627118644068,-0.45084745762711864,-0.4271186440677966,-0.4610169491525424,-0.4440677966101695,-0.47966101694915253,-0.4440677966101695,-0.4322033898305085,-0.423728813559322,-0.43389830508474575,-0.4271186440677966,-0.42542372881355933,-0.42033898305084744,-0.41694915254237286,-0.4271186440677966,-0.4288135593220339,-0.4135593220338983,-0.42033898305084744,-0.3949152542372881,-0.37796610169491524,-0.36610169491525424,-0.3728813559322034,0.5169491525423728]","[-0.8706896551724138,-0.9195402298850575,-0.896551724137931,-0.9339080459770115,-0.9166666666666666,-0.9022988505747126,-0.896551724137931,-0.9080459770114943,-0.9137931034482759,-0.896551724137931,-0.9080459770114943,-0.8994252873563219,-0.8908045977011494,-0.8735632183908046,-0.9166666666666666,-0.9080459770114943,-0.9109195402298851,-0.9080459770114943,-0.9109195402298851,-0.9022988505747126,-0.8908045977011494,-0.9051724137931034,-0.896551724137931,-0.8908045977011494,-0.882183908045977,-0.8908045977011494,-0.8994252873563219,-0.9051724137931034,-0.9396551724137931,-0.882183908045977,-0.9310344827586207,-0.9224137931034483,-0.9339080459770115,-0.9080459770114943,-0.9109195402298851,-0.9109195402298851,-0.9281609195402298,-0.9109195402298851,-0.8936781609195402,-0.8879310344827587,-0.8764367816091954,-0.882183908045977,-0.8563218390804598,-0.8879310344827587,-0.896551724137931,-0.8908045977011494,-0.896551724137931,-0.9080459770114943,-0.9022988505747126,-0.8879310344827587,-0.9109195402298851,-0.9109195402298851,-0.9166666666666666,-0.9195402298850575,-0.882183908045977]","[1,1,1,1,1,1,1,1,1,1,1,1,1,1,1,1,1,1,1,1,1,1,1,1,1,1,1,1,1,1,1,1,1,1,1,1,1,1,1,1,1,1,1,1,1,1,1,1,1,1,1,1,1,1,1]","[0,0,0,0,0,0,0,0,0,0,0,0,0,0,0,0,0,0,0,0,0,0,0,0,0,0,0,0,0,0,0,0,0,0,0,0,0,0,0,0,0,0,0,0,0,0,0,0,0,0,0,0,0,0,0]","[0,0,0,0,0,0,0,0,0,0,0,0,0,0,0,0,0,0,0,0,0,0,0,0,0,0,0,0,0,0,0,0,0,0,0,0,0,0,0,0,0,0,0,0,0,0,0,0,0,0,0,0,0,0,0]","[0.7530000000001564,0.9520000000002256,1.1520000000000437,1.3690000000001419,1.56899999999996,1.7519999999999527,1.9520000000002256,2.2020000000002256,2.4520000000002256,2.6849999999999454,2.919000000000324,3.1520000000000437,3.369000000000142,3.619000000000142,3.8520000000003165,4.085000000000036,4.31899999999996,4.552000000000135,4.751999999999953,4.985000000000127,5.251999999999953,5.469000000000051,5.684999999999945,5.91800000000012,6.219000000000051,6.485000000000127,6.802000000000135,7.068000000000211,7.41800000000012,7.7020000000002256,8.018000000000029,8.468000000000302,8.78500000000031,9.117999999999938,9.585000000000036,9.902000000000044,10.351000000000113,11.635000000000218,12.351000000000113,12.601000000000113,12.818000000000211,13.03500000000031,13.268000000000029,13.867999999999938,14.30099999999993,14.751000000000204,15.468000000000302,16.968000000000302,17.651000000000295,18.48400000000038,19.73400000000038,20.451000000000022,20.66700000000037,20.86700000000019,21.501000000000204]",421.58,423.077,27,0,27,0,1,,,,,,,,
,,example_1,1,2020-01-01_12h00.00.000,BART_v3-2_touch,2023.2.2,iPad,45.45454545,,,,,,,,,423.077,424.076,,,,,,,,,,,,,,,,,,,,,,,,,,,,424.076,439.728,54,"[0.96,1.01]",540,FALSE,122,"[-0.42033898305084744,-0.43898305084745765,-0.43728813559322033,-0.43898305084745765,-0.43559322033898307,-0.42542372881355933,-0.4271186440677966,-0.41694915254237286,-0.41694915254237286,-0.4135593220338983,-0.411864406779661,-0.411864406779661,-0.40508474576271186,-0.39661016949152544,-0.39152542372881355,-0.3847457627118644,-0.35423728813559324,-0.36271186440677966,-0.3694915254237288,-0.3728813559322034,-0.3728813559322034,-0.3677966101694915,-0.3694915254237288,-0.3711864406779661,-0.3677966101694915,-0.3610169491525424,-0.36271186440677966,-0.3576271186440678,-0.34576271186440677,-0.34915254237288135,-0.34576271186440677,-0.34576271186440677,-0.3677966101694915,-0.4322033898305085,-0.44745762711864406,-0.4406779661016949,-0.43389830508474575,-0.4288135593220339,-0.4322033898305085,-0.43389830508474575,-0.4491525423728814,-0.4542372881355932,-0.45084745762711864,-0.43559322033898307,-0.4271186440677966,-0.42542372881355933,-0.4406779661016949,-0.43559322033898307,-0.42033898305084744,-0.4067796610169492,-0.4271186440677966,-0.4186440677966102,-0.423728813559322,-0.4322033898305085,-0.43728813559322033,-0.43898305084745765,-0.43898305084745765,-0.46440677966101696,0.5033898305084745]","[-0.9281609195402298,-0.9166666666666666,-0.9454022988505747,-0.9051724137931034,-0.9281609195402298,-0.9080459770114943,-0.9252873563218391,-0.9109195402298851,-0.9109195402298851,-0.9252873563218391,-0.9310344827586207,-0.9137931034482759,-0.9080459770114943,-0.9109195402298851,-0.8994252873563219,-0.8936781609195402,-0.8850574712643678,-0.896551724137931,-0.9080459770114943,-0.9166666666666666,-0.9109195402298851,-0.9166666666666666,-0.8994252873563219,-0.8879310344827587,-0.8649425287356322,-0.853448275862069,-0.853448275862069,-0.8390804597701149,-0.8620689655172413,-0.8735632183908046,-0.8419540229885057,-0.8764367816091954,-0.8448275862068966,-0.8735632183908046,-0.896551724137931,-0.9022988505747126,-0.882183908045977,-0.8620689655172413,-0.8764367816091954,-0.8477011494252874,-0.8448275862068966,-0.8706896551724138,-0.896551724137931,-0.8994252873563219,-0.9051724137931034,-0.8908045977011494,-0.8879310344827587,-0.8850574712643678,-0.8793103448275862,-0.8620689655172413,-0.8936781609195402,-0.896551724137931,-0.882183908045977,-0.8735632183908046,-0.867816091954023,-0.867816091954023,-0.8735632183908046,-0.8908045977011494,-0.8735632183908046]","[1,1,1,1,1,1,1,1,1,1,1,1,1,1,1,1,1,1,1,1,1,1,1,1,1,1,1,1,1,1,1,1,1,1,1,1,1,1,1,1,1,1,1,1,1,1,1,1,1,1,1,1,1,1,1,1,1,1,1]","[0,0,0,0,0,0,0,0,0,0,0,0,0,0,0,0,0,0,0,0,0,0,0,0,0,0,0,0,0,0,0,0,0,0,0,0,0,0,0,0,0,0,0,0,0,0,0,0,0,0,0,0,0,0,0,0,0,0,0]","[0,0,0,0,0,0,0,0,0,0,0,0,0,0,0,0,0,0,0,0,0,0,0,0,0,0,0,0,0,0,0,0,0,0,0,0,0,0,0,0,0,0,0,0,0,0,0,0,0,0,0,0,0,0,0,0,0,0,0]","[0.43499999999994543,0.6509999999998399,0.8350000000000364,1.018000000000029,1.1849999999999454,1.3679999999999382,1.5509999999999309,1.750999999999749,1.9349999999999454,2.117999999999938,2.3350000000000364,2.550999999999931,2.7350000000001273,2.9359999999996944,3.117999999999938,3.3179999999997563,3.617999999999938,3.951000000000022,4.117999999999938,4.300999999999931,4.467999999999847,4.65099999999984,4.833999999999833,5.018000000000029,5.217999999999847,5.433999999999742,5.65099999999984,5.851000000000113,6.067999999999756,6.250999999999749,6.467999999999847,6.65099999999984,6.90099999999984,7.116999999999734,7.483999999999924,7.683999999999742,7.8840000000000146,8.116999999999734,8.351000000000113,8.683999999999742,8.951000000000022,9.201000000000022,9.40099999999984,9.634000000000015,9.817999999999756,10.034000000000106,10.534000000000106,10.75,10.967000000000098,11.183999999999742,11.650000000000546,12.16800000000012,12.634000000000015,13.166999999999916,13.634999999999764,13.866999999999734,14.083999999999833,14.616999999999734,15.650000000000546]",439.728,441.225,28,0,28,0,1,,,,,,,,
,,example_1,1,2020-01-01_12h00.00.000,BART_v3-2_touch,2023.2.2,iPad,45.45454545,,,,,,,,,441.225,442.225,,,,,,,,,,,,,,,,,,,,,,,,,,,,442.225,454.811,53,"[0.93,0.98]",520,TRUE,52,"[-0.46271186440677964,-0.44745762711864406,-0.4864406779661017,-0.47627118644067795,-0.45084745762711864,-0.4491525423728814,-0.43728813559322033,-0.43050847457627117,-0.43559322033898307,-0.4271186440677966,-0.4186440677966102,-0.4152542372881356,-0.4186440677966102,-0.42033898305084744,-0.42033898305084744,-0.4152542372881356,-0.4152542372881356,-0.411864406779661,-0.4,-0.4016949152542373,-0.40508474576271186,-0.40508474576271186,-0.40847457627118644,-0.4016949152542373,-0.42203389830508475,-0.43050847457627117,-0.43559322033898307,-0.43728813559322033,-0.4491525423728814,-0.43898305084745765,-0.4322033898305085,-0.4271186440677966,-0.43559322033898307,-0.4440677966101695,-0.4423728813559322,-0.4440677966101695,-0.4491525423728814,-0.45254237288135596,-0.45254237288135596,-0.4576271186440678,-0.45254237288135596,-0.45084745762711864,-0.45254237288135596,-0.4559322033898305,-0.4576271186440678,-0.4559322033898305,-0.45254237288135596,-0.4661016949152542,-0.4661016949152542,-0.4694915254237288,-0.46779661016949153,-0.46779661016949153,-0.4864406779661017,-0.48135593220338985]","[-0.9454022988505747,-0.7557471264367817,-0.9080459770114943,-0.9655172413793104,-0.9310344827586207,-0.9281609195402298,-0.9109195402298851,-0.8994252873563219,-0.9022988505747126,-0.8908045977011494,-0.896551724137931,-0.8936781609195402,-0.9166666666666666,-0.9166666666666666,-0.8936781609195402,-0.8879310344827587,-0.882183908045977,-0.8908045977011494,-0.8994252873563219,-0.8850574712643678,-0.8879310344827587,-0.882183908045977,-0.8735632183908046,-0.8390804597701149,-0.8390804597701149,-0.8620689655172413,-0.8879310344827587,-0.8879310344827587,-0.8936781609195402,-0.9109195402298851,-0.8879310344827587,-0.853448275862069,-0.8850574712643678,-0.9109195402298851,-0.9109195402298851,-0.9022988505747126,-0.8850574712643678,-0.8908045977011494,-0.8936781609195402,-0.8994252873563219,-0.8994252873563219,-0.896551724137931,-0.9022988505747126,-0.9109195402298851,-0.9051724137931034,-0.896551724137931,-0.8994252873563219,-0.8850574712643678,-0.8908045977011494,-0.8879310344827587,-0.8735632183908046,-0.8879310344827587,-0.9022988505747126,-0.8908045977011494]","[1,1,1,1,1,1,1,1,1,1,1,1,1,1,1,1,1,1,1,1,1,1,1,1,1,1,1,1,1,1,1,1,1,1,1,1,1,1,1,1,1,1,1,1,1,1,1,1,1,1,1,1,1,1]","[0,0,0,0,0,0,0,0,0,0,0,0,0,0,0,0,0,0,0,0,0,0,0,0,0,0,0,0,0,0,0,0,0,0,0,0,0,0,0,0,0,0,0,0,0,0,0,0,0,0,0,0,0,0]","[0,0,0,0,0,0,0,0,0,0,0,0,0,0,0,0,0,0,0,0,0,0,0,0,0,0,0,0,0,0,0,0,0,0,0,0,0,0,0,0,0,0,0,0,0,0,0,0,0,0,0,0,0,0]","[0.9520000000002256,1.2350000000001273,1.4520000000002256,1.6350000000002183,1.818000000000211,2.019000000000233,2.2020000000002256,2.41800000000012,2.6350000000002183,2.8350000000000364,3.018000000000029,3.2020000000002256,3.41800000000012,3.6020000000003165,3.8190000000004147,4.036000000000058,4.218000000000302,4.41800000000012,4.6020000000003165,4.802000000000135,5.002000000000862,5.2020000000002256,5.402000000000044,5.635000000000218,5.8520000000003165,6.035000000000309,6.218000000000302,6.451000000000022,6.651000000000295,6.868000000000393,7.085000000000036,7.335000000000036,7.535000000000309,7.735000000000127,7.968000000000302,8.184999999999945,8.451000000000022,8.651000000000295,8.851000000000113,9.068000000000211,9.268000000000029,9.485000000000127,9.66800000000012,9.885000000000218,10.118000000000393,10.351000000000113,10.568000000000211,10.951000000000022,11.184999999999945,11.384000000000015,11.634000000000015,11.83600000000024,12.351000000000113,12.584000000000287]",454.811,456.307,29,0,29,0,1,,,,,,,,
,,example_1,1,2020-01-01_12h00.00.000,BART_v3-2_touch,2023.2.2,iPad,45.45454545,,,,,,,,,,,,,,,,,,,,,,,,,,,,,,,,,,,,,,,,,,,,,,,,,,,,,,,,,,456.307,458.011,0.254237288,-0.74137931,1,0,0,0.703