init.started,init.stopped,device_primaryInput,device_screenWidth,device_screenHeight,device_hasTouch,device_hasKeyboard,device_hasMouse,device_userAgent,init_key_input.keys,init_key_input.rt,init_key_input.duration,init_touch_input.x,init_touch_input.y,init_touch_input.leftButton,init_touch_input.midButton,init_touch_input.rightButton,init_touch_input.time,participant,session,date,expName,psychopyVersion,OS,frameRate,TitleScreen.started,TitleScreen.stopped,key_resp.keys,key_resp.rt,key_resp.duration,touch_resp.x,touch_resp.y,touch_resp.leftButton,touch_resp.midButton,touch_resp.rightButton,touch_resp.time,Instructions.started,Instructions.stopped,key_resp_2.keys,key_resp_2.rt,key_resp_2.duration,touch_resp_2.x,touch_resp_2.y,touch_resp_2.leftButton,touch_resp_2.midButton,touch_resp_2.rightButton,touch_resp_2.time,Instructions2.started,Instructions2.stopped,key_resp_3.keys,key_resp_3.rt,key_resp_3.duration,touch_resp_3.x,touch_resp_3.y,touch_resp_3.leftButton,touch_resp_3.midButton,touch_resp_3.rightButton,touch_resp_3.time,Instructions3.started,Instructions3.stopped,key_resp_4.keys,key_resp_4.rt,key_resp_4.duration,touch_resp_4.x,touch_resp_4.y,touch_resp_4.leftButton,touch_resp_4.midButton,touch_resp_4.rightButton,touch_resp_4.time,Instructions4.started,Instructions4.stopped,key_resp_5.keys,key_resp_5.rt,key_resp_5.duration,touch_resp_5.x,touch_resp_5.y,touch_resp_5.leftButton,touch_resp_5.midButton,touch_resp_5.rightButton,touch_resp_5.time,Instructions7.started,Instructions7.stopped,key_resp_8.keys,key_resp_8.rt,key_resp_8.duration,touch_resp_6.x,touch_resp_6.y,touch_resp_6.leftButton,touch_resp_6.midButton,touch_resp_6.rightButton,touch_resp_6.time,ToBegin.started,ToBegin.stopped,key_resp_9.keys,key_resp_9.rt,key_resp_9.duration,touch_resp_7.x,touch_resp_7.y,touch_resp_7.leftButton,touch_resp_7.midButton,touch_resp_7.rightButton,touch_resp_7.time,startfixation.started,startfixation.stopped,imagestim.started,imagestim.stopped,stim_response.keys,stim_response.rt,stim_response.duration,touch_stim_response.x,touch_stim_response.y,touch_stim_response.leftButton,touch_stim_response.midButton,touch_stim_response.rightButton,touch_stim_response.time,touch_stim_response.clicked_name,fixation.started,fixation.stopped,fixationcrossStartSeconds,fixationcrossStopSeconds,fixationcrossGlobalTime,trials.thisRepN,trials.thisTrialN,trials.thisN,trials.thisIndex,trials.ran,eventtype,cue,correct_resp,fixationduration,cueduration,stimwithcue,LeftChoice,MiddleChoice,RightChoice,end.started,end.stopped
0.0003,0.8715,keyboard,1920,919,FALSE,TRUE,TRUE,"Mozilla/5.0 (Windows NT 10.0; Win64; x64) AppleWebKit/537.36 (KHTML, like Gecko) Chrome/143.0.0.0 Safari/537.36",space,0.8508,,[],[],[],[],[],[],sert_test_3,1,2025-12-22_11h34.06.770,sert_artemis_2025.2.3,2025.2.3,Win32,59.17159763,,,,,,,,,,,,,,,,,,,,,,,,,,,,,,,,,,,,,,,,,,,,,,,,,,,,,,,,,,,,,,,,,,,,,,,,,,,,,,,,,,,,,,,,,,,,,,,,,,,,,,,,,,,,,,,,
,,,,,,,,,,,,,,,,,,sert_test_3,1,2025-12-22_11h34.06.770,sert_artemis_2025.2.3,2025.2.3,Win32,59.17159763,0.872,2.8709,space,0.9674,,[],[],[],[],[],[],,,,,,,,,,,,,,,,,,,,,,,,,,,,,,,,,,,,,,,,,,,,,,,,,,,,,,,,,,,,,,,,,,,,,,,,,,,,,,,,,,,,,,,,,,,,,,,,,,,,,
,,,,,,,,,,,,,,,,,,sert_test_3,1,2025-12-22_11h34.06.770,sert_artemis_2025.2.3,2025.2.3,Win32,59.17159763,,,,,,,,,,,,2.8712,5.7377,space,0.8466,,[],[],[],[],[],[],,,,,,,,,,,,,,,,,,,,,,,,,,,,,,,,,,,,,,,,,,,,,,,,,,,,,,,,,,,,,,,,,,,,,,,,,,,,,,,,,,,,,,,,,,
,,,,,,,,,,,,,,,,,,sert_test_3,1,2025-12-22_11h34.06.770,sert_artemis_2025.2.3,2025.2.3,Win32,59.17159763,,,,,,,,,,,,,,,,,,,,,,,5.7381,395.3202,space,387.5487,,[],[],[],[],[],[],,,,,,,,,,,,,,,,,,,,,,,,,,,,,,,,,,,,,,,,,,,,,,,,,,,,,,,,,,,,,,,,,,,,,,,,,,,,,,,
,,,,,,,,,,,,,,,,,,sert_test_3,1,2025-12-22_11h34.06.770,sert_artemis_2025.2.3,2025.2.3,Win32,59.17159763,,,,,,,,,,,,,,,,,,,,,,,,,,,,,,,,,,395.3207,398.5205,space,1.1669,,[],[],[],[],[],[],,,,,,,,,,,,,,,,,,,,,,,,,,,,,,,,,,,,,,,,,,,,,,,,,,,,,,,,,,,,,,,,,,,,
,,,,,,,,,,,,,,,,,,sert_test_3,1,2025-12-22_11h34.06.770,sert_artemis_2025.2.3,2025.2.3,Win32,59.17159763,,,,,,,,,,,,,,,,,,,,,,,,,,,,,,,,,,,,,,,,,,,,,398.5209,425.0033,space,24.4608,,[],[],[],[],[],[],,,,,,,,,,,,,,,,,,,,,,,,,,,,,,,,,,,,,,,,,,,,,,,,,,,,,,,,,
,,,,,,,,,,,,,,,,,,sert_test_3,1,2025-12-22_11h34.06.770,sert_artemis_2025.2.3,2025.2.3,Win32,59.17159763,,,,,,,,,,,,,,,,,,,,,,,,,,,,,,,,,,,,,,,,,,,,,,,,,,,,,,,,425.0036,433.6706,space,6.6343,,[],[],[],[],[],[],,,,,,,,,,,,,,,,,,,,,,,,,,,,,,,,,,,,,,,,,,,,,,
,,,,,,,,,,,,,,,,,,sert_test_3,1,2025-12-22_11h34.06.770,sert_artemis_2025.2.3,2025.2.3,Win32,59.17159763,,,,,,,,,,,,,,,,,,,,,,,,,,,,,,,,,,,,,,,,,,,,,,,,,,,,,,,,,,,,,,,,,,,433.671,435.704,space,2.0123,,[],[],[],[],[],[],,,,,,,,,,,,,,,,,,,,,,,,,,,,,,,,,,,
,,,,,,,,,,,,,,,,,,sert_test_3,1,2025-12-22_11h34.06.770,sert_artemis_2025.2.3,2025.2.3,Win32,59.17159763,,,,,,,,,,,,,,,,,,,,,,,,,,,,,,,,,,,,,,,,,,,,,,,,,,,,,,,,,,,,,,,,,,,,,,,,,,,,,,435.7044,439.7038,,,,,,,,,,,,,,,,,,,,,,,,,,,,,,,,,
,,,,,,,,,,,,,,,,,,sert_test_3,1,2025-12-22_11h34.06.770,sert_artemis_2025.2.3,2025.2.3,Win32,59.17159763,,,,,,,,,,,,,,,,,,,,,,,,,,,,,,,,,,,,,,,,,,,,,,,,,,,,,,,,,,,,,,,,,,,,,,,,,,,,,,,,439.7405,441.7869,"[""1""]",[0.9571999999880632],[null],[],[],[],[],[],[],[],441.7871,442.137,0.0002,0.3495,442.137,0,0,0,0,1,objects,color,1,0.35,0.15,1.9,images/Safe_BearHug_Orange_Oval.png,images/Safe_Goggles_Blue_Rect.png,images/Lethal_Pills_Blue_Oval.png,,
,,,,,,,,,,,,,,,,,,sert_test_3,1,2025-12-22_11h34.06.770,sert_artemis_2025.2.3,2025.2.3,Win32,59.17159763,,,,,,,,,,,,,,,,,,,,,,,,,,,,,,,,,,,,,,,,,,,,,,,,,,,,,,,,,,,,,,,,,,,,,,,,,,,,,,,,442.1414,444.1868,"[""1""]",[1.5248000000119077],[null],[],[],[],[],[],[],[],444.1869,444.5369,0,0.3498,444.5369,0,1,1,1,1,objects,shape,1,0.35,0.15,1.9,images/Lethal_Noose_1_Blue_Oval.png,images/Lethal_Razor_Orange_Rhom.png,images/Safe_SeatBelt_Blue_Rhom.png,,
,,,,,,,,,,,,,,,,,,sert_test_3,1,2025-12-22_11h34.06.770,sert_artemis_2025.2.3,2025.2.3,Win32,59.17159763,,,,,,,,,,,,,,,,,,,,,,,,,,,,,,,,,,,,,,,,,,,,,,,,,,,,,,,,,,,,,,,,,,,,,,,,,,,,,,,,444.5392,446.5868,"[""3"",""2""]","[1.5115999999642327,1.6396999999880677]","[null,null]",[],[],[],[],[],[],[],446.5869,446.9369,0,0.3499,446.9369,0,2,2,2,1,objects,lethal,2,0.35,0.15,1.9,images/Lethal_Gun_1_Orange_Rhom.png,images/Safe_Extinguisher_Orange_Oval.png,images/Lethal_Knife_Blue_Oval.png,,
,,,,,,,,,,,,,,,,,,sert_test_3,1,2025-12-22_11h34.06.770,sert_artemis_2025.2.3,2025.2.3,Win32,59.17159763,,,,,,,,,,,,,,,,,,,,,,,,,,,,,,,,,,,,,,,,,,,,,,,,,,,,,,,,,,,,,,,,,,,,,,,,,,,,,,,,446.9386,448.9867,"[""3""]",[1.4154000000357883],[null],[],[],[],[],[],[],[],448.9868,449.4368,0,0.4497,449.4368,0,3,3,3,1,objects,color,3,0.45,0.15,1.9,images/Safe_Goggles_Orange_Rect.png,images/Lethal_Poison_Orange_Oval.png,images/Safe_LifeVest_Blue_Oval.png,,
,,,,,,,,,,,,,,,,,,sert_test_3,1,2025-12-22_11h34.06.770,sert_artemis_2025.2.3,2025.2.3,Win32,59.17159763,,,,,,,,,,,,,,,,,,,,,,,,,,,,,,,,,,,,,,,,,,,,,,,,,,,,,,,,,,,,,,,,,,,,,,,,,,,,,,,,449.4385,451.4865,"[""1"",""2""]","[1.0116000000238614,1.6996000000238496]","[null,null]",[],[],[],[],[],[],[],451.4865,451.8368,0.0001,0.3501,451.8368,0,4,4,4,1,objects,shape,2,0.35,0.15,1.9,images/Inert_Orange_Orange_Rhom.png,images/Inert_Camera_Blue_Rect.png,images/Lethal_Pills_Blue_Rhom.png,,
,,,,,,,,,,,,,,,,,,sert_test_3,1,2025-12-22_11h34.06.770,sert_artemis_2025.2.3,2025.2.3,Win32,59.17159763,,,,,,,,,,,,,,,,,,,,,,,,,,,,,,,,,,,,,,,,,,,,,,,,,,,,,,,,,,,,,,,,,,,,,,,,,,,,,,,,451.8388,453.8859,"[""2""]",[1.9859000000357696],[null],[],[],[],[],[],[],[],453.8859,454.2365,0,0.3504,454.2365,0,5,5,5,1,objects,lethal,2,0.35,0.15,1.9,images/Lethal_Noose_1_Blue_Rhom.png,images/Inert_Hat_Orange_Rhom.png,images/Lethal_Poison_Orange_Oval.png,,
,,,,,,,,,,,,,,,,,,sert_test_3,1,2025-12-22_11h34.06.770,sert_artemis_2025.2.3,2025.2.3,Win32,59.17159763,,,,,,,,,,,,,,,,,,,,,,,,,,,,,,,,,,,,,,,,,,,,,,,,,,,,,,,,,,,,,,,,,,,,,,,,,,,,,,,,454.2373,456.2861,"[""3"",""1""]","[1.49970000004771,1.9165000000000418]","[null,null]",[],[],[],[],[],[],[],456.2862,456.6366,0,0.3502,456.6366,0,6,6,6,1,objects,lethal,1,0.35,0.15,1.9,images/Lethal_Gun_1_Blue_Rhom.png,images/Inert_Hairbrush_Orange_Rhom.png,images/Inert_Strawberry_Blue_Rect.png,,
,,,,,,,,,,,,,,,,,,sert_test_3,1,2025-12-22_11h34.06.770,sert_artemis_2025.2.3,2025.2.3,Win32,59.17159763,,,,,,,,,,,,,,,,,,,,,,,,,,,,,,,,,,,,,,,,,,,,,,,,,,,,,,,,,,,,,,,,,,,,,,,,,,,,,,,,456.6384,458.6868,"[""2""]",[1.907800000011889],[null],[],[],[],[],[],[],[],458.6868,459.0367,0.0001,0.3497,459.0367,0,7,7,7,1,objects,color,2,0.35,0.15,1.9,images/Inert_Hat_Orange_Oval.png,images/Safe_Buoy_Blue_Oval.png,images/Safe_SeatBelt_Orange_Rect.png,,
,,,,,,,,,,,,,,,,,,sert_test_3,1,2025-12-22_11h34.06.770,sert_artemis_2025.2.3,2025.2.3,Win32,59.17159763,,,,,,,,,,,,,,,,,,,,,,,,,,,,,,,,,,,,,,,,,,,,,,,,,,,,,,,,,,,,,,,,,,,,,,,,,,,,,,,,459.0379,461.0868,"[""3""]",[0.9826000000238082],[null],[],[],[],[],[],[],[],461.0869,461.4368,0.0001,0.3498,461.4368,0,8,8,8,1,objects,color,3,0.35,0.15,1.9,images/Safe_BearHug_Blue_Rect.png,images/Lethal_Razor_Blue_Rhom.png,images/Safe_Buoy_Orange_Rhom.png,,
,,,,,,,,,,,,,,,,,,sert_test_3,1,2025-12-22_11h34.06.770,sert_artemis_2025.2.3,2025.2.3,Win32,59.17159763,,,,,,,,,,,,,,,,,,,,,,,,,,,,,,,,,,,,,,,,,,,,,,,,,,,,,,,,,,,,,,,,,,,,,,,,,,,,,,,,461.4389,463.4857,"[""3""]",[1.570900000035806],[null],[],[],[],[],[],[],[],463.4857,464.036,0,0.5501,464.036,0,9,9,9,1,objects,shape,3,0.55,0.15,1.9,images/Lethal_Poison_Orange_Rect.png,images/Safe_Extinguisher_Blue_Rect.png,images/Safe_SeatBelt_Orange_Rhom.png,,
,,,,,,,,,,,,,,,,,,sert_test_3,1,2025-12-22_11h34.06.770,sert_artemis_2025.2.3,2025.2.3,Win32,59.17159763,,,,,,,,,,,,,,,,,,,,,,,,,,,,,,,,,,,,,,,,,,,,,,,,,,,,,,,,,,,,,,,,,,,,,,,,,,,,,,,,464.0377,466.0868,"[""1""]",[0.9903000000118709],[null],[],[],[],[],[],[],[],466.0869,466.6362,0,0.5493,466.6362,0,10,10,10,1,objects,color,1,0.55,0.15,1.9,images/Safe_Buoy_Blue_Rhom.png,images/Safe_BearHug_Orange_Oval.png,images/Lethal_Gun_1_Orange_Rhom.png,,
,,,,,,,,,,,,,,,,,,sert_test_3,1,2025-12-22_11h34.06.770,sert_artemis_2025.2.3,2025.2.3,Win32,59.17159763,,,,,,,,,,,,,,,,,,,,,,,,,,,,,,,,,,,,,,,,,,,,,,,,,,,,,,,,,,,,,,,,,,,,,,,,,,,,,,,,466.6367,468.687,"[""2""]",[1.0650000000000546],[null],[],[],[],[],[],[],[],468.6871,469.2366,0,0.5493,469.2366,0,11,11,11,1,objects,color,2,0.55,0.15,1.9,images/Lethal_Noose_1_Orange_Oval.png,images/Safe_Buoy_Blue_Oval.png,images/Safe_LifeVest_Orange_Rect.png,,
,,,,,,,,,,,,,,,,,,sert_test_3,1,2025-12-22_11h34.06.770,sert_artemis_2025.2.3,2025.2.3,Win32,59.17159763,,,,,,,,,,,,,,,,,,,,,,,,,,,,,,,,,,,,,,,,,,,,,,,,,,,,,,,,,,,,,,,,,,,,,,,,,,,,,,,,469.2372,471.2862,"[""2""]",[1.0864000000357805],[null],[],[],[],[],[],[],[],471.2862,471.7366,0,0.4504,471.7366,0,12,12,12,1,objects,color,2,0.45,0.15,1.9,images/Inert_Hairbrush_Orange_Rhom.png,images/Lethal_Razor_Blue_Rhom.png,images/Lethal_Knife_Orange_Rect.png,,
,,,,,,,,,,,,,,,,,,sert_test_3,1,2025-12-22_11h34.06.770,sert_artemis_2025.2.3,2025.2.3,Win32,59.17159763,,,,,,,,,,,,,,,,,,,,,,,,,,,,,,,,,,,,,,,,,,,,,,,,,,,,,,,,,,,,,,,,,,,,,,,,,,,,,,,,471.7375,473.7864,"[""2""]",[1.1491999999880704],[null],[],[],[],[],[],[],[],473.7866,474.1369,0,0.3501,474.1369,0,13,13,13,1,objects,color,2,0.35,0.15,1.9,images/Safe_LifeVest_Orange_Rect.png,images/Safe_Extinguisher_Blue_Oval.png,images/Lethal_Noose_1_Orange_Oval.png,,
,,,,,,,,,,,,,,,,,,sert_test_3,1,2025-12-22_11h34.06.770,sert_artemis_2025.2.3,2025.2.3,Win32,59.17159763,,,,,,,,,,,,,,,,,,,,,,,,,,,,,,,,,,,,,,,,,,,,,,,,,,,,,,,,,,,,,,,,,,,,,,,,,,,,,,,,474.1378,476.1868,"[""1""]",[1.1498000000119077],[null],[],[],[],[],[],[],[],476.1868,476.7365,0.0001,0.5496,476.7365,0,14,14,14,1,objects,color,1,0.55,0.15,1.9,images/Lethal_Poison_Blue_Oval.png,images/Lethal_Gun_1_Orange_Rhom.png,images/Inert_Strawberry_Orange_Oval.png,,
,,,,,,,,,,,,,,,,,,sert_test_3,1,2025-12-22_11h34.06.770,sert_artemis_2025.2.3,2025.2.3,Win32,59.17159763,,,,,,,,,,,,,,,,,,,,,,,,,,,,,,,,,,,,,,,,,,,,,,,,,,,,,,,,,,,,,,,,,,,,,,,,,,,,,,,,476.7376,478.7865,"[""1""]",[1.0268000000119173],[null],[],[],[],[],[],[],[],478.7866,479.1366,0,0.35,479.1367,0,15,15,15,1,objects,color,2,0.35,0.15,1.9,images/Lethal_Knife_Blue_Rect.png,images/Lethal_Pills_Orange_Rhom.png,images/Safe_Buoy_Blue_Rhom.png,,
,,,,,,,,,,,,,,,,,,sert_test_3,1,2025-12-22_11h34.06.770,sert_artemis_2025.2.3,2025.2.3,Win32,59.17159763,,,,,,,,,,,,,,,,,,,,,,,,,,,,,,,,,,,,,,,,,,,,,,,,,,,,,,,,,,,,,,,,,,,,,,,,,,,,,,,,479.1378,481.1864,"[""3""]",[1.2990999999642554],[null],[],[],[],[],[],[],[],481.1866,481.7366,0,0.5499,481.7366,0,16,16,16,1,objects,color,3,0.55,0.15,1.9,images/Inert_Orange_Orange_Rect.png,images/Lethal_Knife_Orange_Oval.png,images/Inert_Book_Blue_Oval.png,,
,,,,,,,,,,,,,,,,,,sert_test_3,1,2025-12-22_11h34.06.770,sert_artemis_2025.2.3,2025.2.3,Win32,59.17159763,,,,,,,,,,,,,,,,,,,,,,,,,,,,,,,,,,,,,,,,,,,,,,,,,,,,,,,,,,,,,,,,,,,,,,,,,,,,,,,,481.7374,483.7869,"[""1""]",[0.8904000000357541],[null],[],[],[],[],[],[],[],483.787,484.2366,0,0.4495,484.2366,0,17,17,17,1,objects,color,1,0.45,0.15,1.9,images/Lethal_Pills_Blue_Rhom.png,images/Inert_Book_Orange_Rhom.png,images/Lethal_Gun_1_Orange_Rect.png,,
,,,,,,,,,,,,,,,,,,sert_test_3,1,2025-12-22_11h34.06.770,sert_artemis_2025.2.3,2025.2.3,Win32,59.17159763,,,,,,,,,,,,,,,,,,,,,,,,,,,,,,,,,,,,,,,,,,,,,,,,,,,,,,,,,,,,,,,,,,,,,,,,,,,,,,,,484.2377,486.2866,"[""2""]",[1.03240000003575],[null],[],[],[],[],[],[],[],486.2867,486.6364,0,0.3496,486.6364,0,18,18,18,1,objects,color,2,0.35,0.15,1.9,images/Lethal_Noose_1_Blue_Oval.png,images/Safe_LifeVest_Orange_Oval.png,images/Safe_Goggles_Blue_Rect.png,,
,,,,,,,,,,,,,,,,,,sert_test_3,1,2025-12-22_11h34.06.770,sert_artemis_2025.2.3,2025.2.3,Win32,59.17159763,,,,,,,,,,,,,,,,,,,,,,,,,,,,,,,,,,,,,,,,,,,,,,,,,,,,,,,,,,,,,,,,,,,,,,,,,,,,,,,,486.6375,488.6865,"[""3""]",[1.2864999999999895],[null],[],[],[],[],[],[],[],488.6866,489.1367,0,0.45,489.1367,0,19,19,19,1,objects,color,3,0.45,0.15,1.9,images/Safe_Buoy_Blue_Rect.png,images/Lethal_Razor_Blue_Oval.png,images/Safe_SeatBelt_Orange_Oval.png,,
,,,,,,,,,,,,,,,,,,sert_test_3,1,2025-12-22_11h34.06.770,sert_artemis_2025.2.3,2025.2.3,Win32,59.17159763,,,,,,,,,,,,,,,,,,,,,,,,,,,,,,,,,,,,,,,,,,,,,,,,,,,,,,,,,,,,,,,,,,,,,,,,,,,,,,,,489.1385,491.1866,"[""2"",""3""]","[1.311599999964244,1.7115999999642781]","[null,null]",[],[],[],[],[],[],[],491.1867,491.7357,0,0.549,491.7357,0,20,20,20,1,objects,shape,3,0.55,0.15,1.9,images/Lethal_Gun_1_Blue_Rect.png,images/Safe_BearHug_Orange_Rect.png,images/Safe_LifeVest_Blue_Rhom.png,,
,,,,,,,,,,,,,,,,,,sert_test_3,1,2025-12-22_11h34.06.770,sert_artemis_2025.2.3,2025.2.3,Win32,59.17159763,,,,,,,,,,,,,,,,,,,,,,,,,,,,,,,,,,,,,,,,,,,,,,,,,,,,,,,,,,,,,,,,,,,,,,,,,,,,,,,,491.7366,493.7866,"[""3""]",[1.1838000000119564],[null],[],[],[],[],[],[],[],493.7867,494.1359,0,0.3492,494.1359,0,21,21,21,1,objects,color,3,0.35,0.15,1.9,images/Lethal_Poison_Blue_Oval.png,images/Inert_Book_Blue_Rhom.png,images/Inert_Strawberry_Orange_Oval.png,,
,,,,,,,,,,,,,,,,,,sert_test_3,1,2025-12-22_11h34.06.770,sert_artemis_2025.2.3,2025.2.3,Win32,59.17159763,,,,,,,,,,,,,,,,,,,,,,,,,,,,,,,,,,,,,,,,,,,,,,,,,,,,,,,,,,,,,,,,,,,,,,,,,,,,,,,,494.1366,496.1872,"[""3""]",[1.1680000000000064],[null],[],[],[],[],[],[],[],496.1873,496.5367,0,0.3492,496.5367,0,22,22,22,1,objects,color,3,0.35,0.15,1.9,images/Lethal_Noose_1_Blue_Oval.png,images/Safe_Buoy_Blue_Rhom.png,images/Safe_Goggles_Orange_Oval.png,,
,,,,,,,,,,,,,,,,,,sert_test_3,1,2025-12-22_11h34.06.770,sert_artemis_2025.2.3,2025.2.3,Win32,59.17159763,,,,,,,,,,,,,,,,,,,,,,,,,,,,,,,,,,,,,,,,,,,,,,,,,,,,,,,,,,,,,,,,,,,,,,,,,,,,,,,,496.539,498.5858,"[""3"",""2""]","[1.6119999999999663,1.879300000011881]","[null,null]",[],[],[],[],[],[],[],498.5858,499.1369,0,0.5509,499.1369,0,23,23,23,1,objects,lethal,2,0.55,0.15,1.9,images/Safe_Buoy_Orange_Oval.png,images/Lethal_Razor_Blue_Oval.png,images/Safe_Extinguisher_Blue_Rhom.png,,
,,,,,,,,,,,,,,,,,,sert_test_3,1,2025-12-22_11h34.06.770,sert_artemis_2025.2.3,2025.2.3,Win32,59.17159763,,,,,,,,,,,,,,,,,,,,,,,,,,,,,,,,,,,,,,,,,,,,,,,,,,,,,,,,,,,,,,,,,,,,,,,,,,,,,,,,499.1388,501.1866,"[""3""]",[1.5355000000000132],[null],[],[],[],[],[],[],[],501.1867,501.7366,0,0.5497,501.7366,0,24,24,24,1,objects,color,3,0.55,0.15,1.9,images/Lethal_Knife_Orange_Rect.png,images/Inert_Orange_Orange_Rhom.png,images/Inert_Camera_Blue_Rect.png,,
,,,,,,,,,,,,,,,,,,sert_test_3,1,2025-12-22_11h34.06.770,sert_artemis_2025.2.3,2025.2.3,Win32,59.17159763,,,,,,,,,,,,,,,,,,,,,,,,,,,,,,,,,,,,,,,,,,,,,,,,,,,,,,,,,,,,,,,,,,,,,,,,,,,,,,,,501.7375,503.7865,"[""2""]",[1.1489000000357237],[null],[],[],[],[],[],[],[],503.7865,504.3364,0,0.5498,504.3364,0,25,25,25,1,objects,color,2,0.55,0.15,1.9,images/Lethal_Gun_1_Blue_Rect.png,images/Safe_SeatBelt_Orange_Rect.png,images/Safe_Extinguisher_Blue_Rhom.png,,
,,,,,,,,,,,,,,,,,,sert_test_3,1,2025-12-22_11h34.06.770,sert_artemis_2025.2.3,2025.2.3,Win32,59.17159763,,,,,,,,,,,,,,,,,,,,,,,,,,,,,,,,,,,,,,,,,,,,,,,,,,,,,,,,,,,,,,,,,,,,,,,,,,,,,,,,504.338,506.3862,"[""1""]",[1.28009999996425],[null],[],[],[],[],[],[],[],506.3863,506.7366,0,0.3502,506.7366,0,26,26,26,1,objects,lethal,1,0.35,0.15,1.9,images/Inert_Hat_Orange_Oval.png,images/Lethal_Razor_Orange_Rect.png,images/Lethal_Knife_Blue_Oval.png,,
,,,,,,,,,,,,,,,,,,sert_test_3,1,2025-12-22_11h34.06.770,sert_artemis_2025.2.3,2025.2.3,Win32,59.17159763,,,,,,,,,,,,,,,,,,,,,,,,,,,,,,,,,,,,,,,,,,,,,,,,,,,,,,,,,,,,,,,,,,,,,,,,,,,,,,,,506.7377,508.7867,"[""2""]",[1.749200000047722],[null],[],[],[],[],[],[],[],508.7867,509.1368,0.0001,0.35,509.1368,0,27,27,27,1,objects,lethal,3,0.35,0.15,1.9,images/Inert_Book_Blue_Rect.png,images/Inert_Hairbrush_Orange_Rhom.png,images/Lethal_Noose_1_Orange_Rect.png,,
,,,,,,,,,,,,,,,,,,sert_test_3,1,2025-12-22_11h34.06.770,sert_artemis_2025.2.3,2025.2.3,Win32,59.17159763,,,,,,,,,,,,,,,,,,,,,,,,,,,,,,,,,,,,,,,,,,,,,,,,,,,,,,,,,,,,,,,,,,,,,,,,,,,,,,,,509.1387,511.1867,"[""1""]",[1.5193000000118673],[null],[],[],[],[],[],[],[],511.1867,511.7364,0,0.5496,511.7364,0,28,28,28,1,objects,shape,1,0.55,0.15,1.9,images/Inert_Hairbrush_Blue_Rhom.png,images/Lethal_Gun_1_Blue_Oval.png,images/Inert_Hat_Orange_Oval.png,,
,,,,,,,,,,,,,,,,,,sert_test_3,1,2025-12-22_11h34.06.770,sert_artemis_2025.2.3,2025.2.3,Win32,59.17159763,,,,,,,,,,,,,,,,,,,,,,,,,,,,,,,,,,,,,,,,,,,,,,,,,,,,,,,,,,,,,,,,,,,,,,,,,,,,,,,,511.7374,513.7863,"[""3""]",[1.566500000000019],[null],[],[],[],[],[],[],[],513.7863,514.1364,0,0.35,514.1364,0,29,29,29,1,objects,shape,3,0.35,0.15,1.9,images/Lethal_Pills_Blue_Rect.png,images/Inert_Hairbrush_Orange_Rect.png,images/Inert_Orange_Blue_Rhom.png,,
,,,,,,,,,,,,,,,,,,sert_test_3,1,2025-12-22_11h34.06.770,sert_artemis_2025.2.3,2025.2.3,Win32,59.17159763,,,,,,,,,,,,,,,,,,,,,,,,,,,,,,,,,,,,,,,,,,,,,,,,,,,,,,,,,,,,,,,,,,,,,,,,,,,,,,,,514.1384,516.1866,"[""2""]",[1.335599999964188],[null],[],[],[],[],[],[],[],516.1867,516.7367,0,0.5498,516.7367,0,30,30,30,1,objects,lethal,2,0.55,0.15,1.9,images/Lethal_Razor_Blue_Rect.png,images/Safe_BearHug_Blue_Rhom.png,images/Lethal_Gun_1_Orange_Rhom.png,,
,,,,,,,,,,,,,,,,,,sert_test_3,1,2025-12-22_11h34.06.770,sert_artemis_2025.2.3,2025.2.3,Win32,59.17159763,,,,,,,,,,,,,,,,,,,,,,,,,,,,,,,,,,,,,,,,,,,,,,,,,,,,,,,,,,,,,,,,,,,,,,,,,,,,,,,,516.738,518.7869,"[""2""]",[1.4900999999641726],[null],[],[],[],[],[],[],[],518.7869,519.3367,1.00E-04,0.5497,519.3367,0,31,31,31,1,objects,lethal,2,0.55,0.15,1.9,images/Lethal_Poison_Blue_Oval.png,images/Safe_LifeVest_Orange_Oval.png,images/Lethal_Razor_Orange_Rect.png,,
,,,,,,,,,,,,,,,,,,sert_test_3,1,2025-12-22_11h34.06.770,sert_artemis_2025.2.3,2025.2.3,Win32,59.17159763,,,,,,,,,,,,,,,,,,,,,,,,,,,,,,,,,,,,,,,,,,,,,,,,,,,,,,,,,,,,,,,,,,,,,,,,,,,,,,,,519.338,521.3868,"[""2""]",[1.5650999999642181],[null],[],[],[],[],[],[],[],521.3868,521.7356,0,0.3487,521.7356,0,32,32,32,1,objects,lethal,2,0.35,0.15,1.9,images/Lethal_Gun_1_Orange_Rhom.png,images/Safe_Extinguisher_Blue_Rhom.png,images/Lethal_Knife_Blue_Rect.png,,
,,,,,,,,,,,,,,,,,,sert_test_3,1,2025-12-22_11h34.06.770,sert_artemis_2025.2.3,2025.2.3,Win32,59.17159763,,,,,,,,,,,,,,,,,,,,,,,,,,,,,,,,,,,,,,,,,,,,,,,,,,,,,,,,,,,,,,,,,,,,,,,,,,,,,,,,521.7359,523.7858,"[""1""]",[1.4536000000239255],[null],[],[],[],[],[],[],[],523.7858,524.3359,0,0.55,524.3359,0,33,33,33,1,objects,lethal,1,0.55,0.15,1.9,images/Safe_LifeVest_Blue_Oval.png,images/Lethal_Pills_Orange_Oval.png,images/Lethal_Gun_1_Blue_Rect.png,,
,,,,,,,,,,,,,,,,,,sert_test_3,1,2025-12-22_11h34.06.770,sert_artemis_2025.2.3,2025.2.3,Win32,59.17159763,,,,,,,,,,,,,,,,,,,,,,,,,,,,,,,,,,,,,,,,,,,,,,,,,,,,,,,,,,,,,,,,,,,,,,,,,,,,,,,,524.3363,526.3867,"[""1""]",[1.46060000002376],[null],[],[],[],[],[],[],[],526.3868,526.8367,0,0.4497,526.8367,0,34,34,34,1,objects,lethal,1,0.45,0.15,1.9,images/Safe_BearHug_Orange_Rect.png,images/Lethal_Noose_1_Orange_Oval.png,images/Lethal_Poison_Blue_Rect.png,,
,,,,,,,,,,,,,,,,,,sert_test_3,1,2025-12-22_11h34.06.770,sert_artemis_2025.2.3,2025.2.3,Win32,59.17159763,,,,,,,,,,,,,,,,,,,,,,,,,,,,,,,,,,,,,,,,,,,,,,,,,,,,,,,,,,,,,,,,,,,,,,,,,,,,,,,,526.8379,528.8865,"[""3""]",[1.3746999999880245],[null],[],[],[],[],[],[],[],528.8866,529.237,0,0.3503,529.237,0,35,35,35,1,objects,lethal,3,0.35,0.15,1.9,images/Lethal_Pills_Blue_Rect.png,images/Lethal_Knife_Orange_Rhom.png,images/Safe_Goggles_Blue_Rhom.png,,
,,,,,,,,,,,,,,,,,,sert_test_3,1,2025-12-22_11h34.06.770,sert_artemis_2025.2.3,2025.2.3,Win32,59.17159763,,,,,,,,,,,,,,,,,,,,,,,,,,,,,,,,,,,,,,,,,,,,,,,,,,,,,,,,,,,,,,,,,,,,,,,,,,,,,,,,529.2385,531.2864,"[""1""]",[1.4207000000477592],[null],[],[],[],[],[],[],[],531.2865,531.7366,0,0.45,531.7366,0,36,36,36,1,objects,lethal,1,0.45,0.15,1.9,images/Safe_BearHug_Blue_Oval.png,images/Lethal_Poison_Blue_Rect.png,images/Lethal_Noose_1_Orange_Oval.png,,
,,,,,,,,,,,,,,,,,,sert_test_3,1,2025-12-22_11h34.06.770,sert_artemis_2025.2.3,2025.2.3,Win32,59.17159763,,,,,,,,,,,,,,,,,,,,,,,,,,,,,,,,,,,,,,,,,,,,,,,,,,,,,,,,,,,,,,,,,,,,,,,,,,,,,,,,531.7375,533.7867,"[""1""]",[1.306400000035751],[null],[],[],[],[],[],[],[],533.7867,534.1365,0,0.3497,534.1365,0,37,37,37,1,objects,lethal,1,0.35,0.15,1.9,images/Safe_LifeVest_Orange_Rect.png,images/Lethal_Knife_Orange_Oval.png,images/Lethal_Pills_Blue_Rect.png,,
,,,,,,,,,,,,,,,,,,sert_test_3,1,2025-12-22_11h34.06.770,sert_artemis_2025.2.3,2025.2.3,Win32,59.17159763,,,,,,,,,,,,,,,,,,,,,,,,,,,,,,,,,,,,,,,,,,,,,,,,,,,,,,,,,,,,,,,,,,,,,,,,,,,,,,,,534.1376,536.1868,"[""1""]",[1.5159000000357992],[null],[],[],[],[],[],[],[],536.1868,536.5368,0,0.3499,536.5368,0,38,38,38,1,objects,lethal,1,0.35,0.15,1.9,images/Safe_Extinguisher_Orange_Rhom.png,images/Lethal_Gun_1_Orange_Rect.png,images/Lethal_Razor_Blue_Rhom.png,,
,,,,,,,,,,,,,,,,,,sert_test_3,1,2025-12-22_11h34.06.770,sert_artemis_2025.2.3,2025.2.3,Win32,59.17159763,,,,,,,,,,,,,,,,,,,,,,,,,,,,,,,,,,,,,,,,,,,,,,,,,,,,,,,,,,,,,,,,,,,,,,,,,,,,,,,,536.5379,538.5868,"[""2""]",[1.4501999999880582],[null],[],[],[],[],[],[],[],538.5869,538.9365,0,0.3495,538.9366,0,39,39,39,1,objects,lethal,2,0.35,0.15,1.9,images/Lethal_Poison_Blue_Oval.png,images/Safe_SeatBelt_Orange_Oval.png,images/Lethal_Knife_Orange_Rect.png,,
,,,,,,,,,,,,,,,,,,sert_test_3,1,2025-12-22_11h34.06.770,sert_artemis_2025.2.3,2025.2.3,Win32,59.17159763,,,,,,,,,,,,,,,,,,,,,,,,,,,,,,,,,,,,,,,,,,,,,,,,,,,,,,,,,,,,,,,,,,,,,,,,,,,,,,,,538.9384,540.9866,"[""3""]",[1.7513000000118382],[null],[],[],[],[],[],[],[],540.9866,541.4357,1.00E-04,0.449,541.4357,0,40,40,40,1,objects,shape,3,0.45,0.15,1.9,images/Inert_Orange_Orange_Rect.png,images/Lethal_Poison_Blue_Rect.png,images/Inert_Hairbrush_Blue_Oval.png,,
,,,,,,,,,,,,,,,,,,sert_test_3,1,2025-12-22_11h34.06.770,sert_artemis_2025.2.3,2025.2.3,Win32,59.17159763,,,,,,,,,,,,,,,,,,,,,,,,,,,,,,,,,,,,,,,,,,,,,,,,,,,,,,,,,,,,,,,,,,,,,,,,,,,,,,,,541.436,543.4868,"[""3""]",[1.785900000035781],[null],[],[],[],[],[],[],[],543.4868,544.0355,0,0.5485,544.0355,0,41,41,41,1,objects,shape,3,0.55,0.15,1.9,images/Lethal_Poison_Blue_Rhom.png,images/Safe_Extinguisher_Orange_Rhom.png,images/Lethal_Knife_Orange_Rect.png,,
,,,,,,,,,,,,,,,,,,sert_test_3,1,2025-12-22_11h34.06.770,sert_artemis_2025.2.3,2025.2.3,Win32,59.17159763,,,,,,,,,,,,,,,,,,,,,,,,,,,,,,,,,,,,,,,,,,,,,,,,,,,,,,,,,,,,,,,,,,,,,,,,,,,,,,,,544.0362,546.0866,"[""2""]",[1.6676999999880309],[null],[],[],[],[],[],[],[],546.0867,546.6366,0,0.5497,546.6366,0,42,42,42,1,objects,lethal,2,0.55,0.15,1.9,images/Inert_Book_Blue_Oval.png,images/Lethal_Gun_1_Orange_Oval.png,images/Inert_Hat_Orange_Rhom.png,,
,,,,,,,,,,,,,,,,,,sert_test_3,1,2025-12-22_11h34.06.770,sert_artemis_2025.2.3,2025.2.3,Win32,59.17159763,,,,,,,,,,,,,,,,,,,,,,,,,,,,,,,,,,,,,,,,,,,,,,,,,,,,,,,,,,,,,,,,,,,,,,,,,,,,,,,,546.6385,548.6855,"[""1""]",[1.5080000000000382],[null],[],[],[],[],[],[],[],548.6856,549.0365,0,0.3507,549.0365,0,43,43,43,1,objects,color,1,0.35,0.15,1.9,images/Lethal_Gun_1_Orange_Rect.png,images/Lethal_Poison_Blue_Oval.png,images/Inert_Camera_Blue_Rect.png,,
,,,,,,,,,,,,,,,,,,sert_test_3,1,2025-12-22_11h34.06.770,sert_artemis_2025.2.3,2025.2.3,Win32,59.17159763,,,,,,,,,,,,,,,,,,,,,,,,,,,,,,,,,,,,,,,,,,,,,,,,,,,,,,,,,,,,,,,,,,,,,,,,,,,,,,,,549.0384,551.0865,"[""1""]",[1.796800000011899],[null],[],[],[],[],[],[],[],551.0866,551.4365,0.0001,0.3498,551.4365,0,44,44,44,1,objects,lethal,1,0.35,0.15,1.9,images/Inert_Book_Orange_Rect.png,images/Lethal_Noose_1_Blue_Rect.png,images/Lethal_Razor_Orange_Rhom.png,,
,,,,,,,,,,,,,,,,,,sert_test_3,1,2025-12-22_11h34.06.770,sert_artemis_2025.2.3,2025.2.3,Win32,59.17159763,,,,,,,,,,,,,,,,,,,,,,,,,,,,,,,,,,,,,,,,,,,,,,,,,,,,,,,,,,,,,,,,,,,,,,,,,,,,,,,,551.4386,553.4861,"[""3""]",[1.315499999999929],[null],[],[],[],[],[],[],[],553.4862,554.0358,0,0.5495,554.0358,0,45,45,45,1,objects,shape,3,0.55,0.15,1.9,images/Inert_Hairbrush_Blue_Rhom.png,images/Lethal_Razor_Orange_Rhom.png,images/Inert_Strawberry_Orange_Rect.png,,
,,,,,,,,,,,,,,,,,,sert_test_3,1,2025-12-22_11h34.06.770,sert_artemis_2025.2.3,2025.2.3,Win32,59.17159763,,,,,,,,,,,,,,,,,,,,,,,,,,,,,,,,,,,,,,,,,,,,,,,,,,,,,,,,,,,,,,,,,,,,,,,,,,,,,,,,554.0366,556.0863,,,,[],[],[],[],[],[],[],556.0864,556.5364,0,0.4499,556.5364,0,46,46,46,1,objects,lethal,1,0.45,0.15,1.9,images/Lethal_Noose_1_Orange_Oval.png,images/Inert_Camera_Orange_Rect.png,images/Inert_Book_Blue_Oval.png,,
,,,,,,,,,,,,,,,,,,sert_test_3,1,2025-12-22_11h34.06.770,sert_artemis_2025.2.3,2025.2.3,Win32,59.17159763,,,,,,,,,,,,,,,,,,,,,,,,,,,,,,,,,,,,,,,,,,,,,,,,,,,,,,,,,,,,,,,,,,,,,,,,,,,,,,,,556.5383,558.5867,"[""3""]",[1.2079000000356928],[null],[],[],[],[],[],[],[],558.5868,559.1366,0,0.5497,559.1366,0,47,47,47,1,objects,color,3,0.55,0.15,1.9,images/Safe_LifeVest_Orange_Rhom.png,images/Lethal_Pills_Orange_Rect.png,images/Safe_SeatBelt_Blue_Rect.png,,
,,,,,,,,,,,,,,,,,,sert_test_3,1,2025-12-22_11h34.06.770,sert_artemis_2025.2.3,2025.2.3,Win32,59.17159763,,,,,,,,,,,,,,,,,,,,,,,,,,,,,,,,,,,,,,,,,,,,,,,,,,,,,,,,,,,,,,,,,,,,,,,,,,,,,,,,559.1383,561.1863,"[""3""]",[1.2151000000237673],[null],[],[],[],[],[],[],[],561.1863,561.7365,0,0.55,561.7365,0,48,48,48,1,objects,lethal,3,0.55,0.15,1.9,images/Lethal_Gun_1_Blue_Oval.png,images/Lethal_Poison_Orange_Rhom.png,images/Inert_Camera_Blue_Rhom.png,,
,,,,,,,,,,,,,,,,,,sert_test_3,1,2025-12-22_11h34.06.770,sert_artemis_2025.2.3,2025.2.3,Win32,59.17159763,,,,,,,,,,,,,,,,,,,,,,,,,,,,,,,,,,,,,,,,,,,,,,,,,,,,,,,,,,,,,,,,,,,,,,,,,,,,,,,,561.7383,563.7865,"[""3""]",[1.5793000000119264],[null],[],[],[],[],[],[],[],563.7865,564.1365,0,0.3499,564.1365,0,49,49,49,1,objects,shape,3,0.35,0.15,1.9,images/Lethal_Pills_Blue_Rhom.png,images/Inert_Hat_Orange_Rhom.png,images/Inert_Strawberry_Blue_Rect.png,,
,,,,,,,,,,,,,,,,,,sert_test_3,1,2025-12-22_11h34.06.770,sert_artemis_2025.2.3,2025.2.3,Win32,59.17159763,,,,,,,,,,,,,,,,,,,,,,,,,,,,,,,,,,,,,,,,,,,,,,,,,,,,,,,,,,,,,,,,,,,,,,,,,,,,,,,,564.1384,566.1868,"[""2""]",[1.7676000000237764],[null],[],[],[],[],[],[],[],566.1869,566.5365,0,0.3493,566.5365,0,50,50,50,1,objects,color,2,0.35,0.15,1.9,images/Lethal_Noose_1_Orange_Rect.png,images/Safe_Goggles_Blue_Rect.png,images/Safe_Buoy_Orange_Oval.png,,
,,,,,,,,,,,,,,,,,,sert_test_3,1,2025-12-22_11h34.06.770,sert_artemis_2025.2.3,2025.2.3,Win32,59.17159763,,,,,,,,,,,,,,,,,,,,,,,,,,,,,,,,,,,,,,,,,,,,,,,,,,,,,,,,,,,,,,,,,,,,,,,,,,,,,,,,566.538,568.5867,"[""3""]",[1.243100000023901],[null],[],[],[],[],[],[],[],568.5867,569.0366,0,0.4498,569.0366,0,51,51,51,1,objects,color,3,0.45,0.15,1.9,images/Lethal_Knife_Blue_Rect.png,images/Inert_Camera_Blue_Rhom.png,images/Lethal_Noose_1_Orange_Rhom.png,,
,,,,,,,,,,,,,,,,,,sert_test_3,1,2025-12-22_11h34.06.770,sert_artemis_2025.2.3,2025.2.3,Win32,59.17159763,,,,,,,,,,,,,,,,,,,,,,,,,,,,,,,,,,,,,,,,,,,,,,,,,,,,,,,,,,,,,,,,,,,,,,,,,,,,,,,,569.0376,571.0866,"[""3""]",[1.48059999996417],[null],[],[],[],[],[],[],[],571.0867,571.5364,1.00E-04,0.4496,571.5364,0,52,52,52,1,objects,color,3,0.45,0.15,1.9,images/Safe_LifeVest_Orange_Oval.png,images/Lethal_Razor_Orange_Rect.png,images/Safe_Extinguisher_Blue_Rect.png,,
,,,,,,,,,,,,,,,,,,sert_test_3,1,2025-12-22_11h34.06.770,sert_artemis_2025.2.3,2025.2.3,Win32,59.17159763,,,,,,,,,,,,,,,,,,,,,,,,,,,,,,,,,,,,,,,,,,,,,,,,,,,,,,,,,,,,,,,,,,,,,,,,,,,,,,,,571.5373,573.5866,"[""3""]",[1.5543999999762264],[null],[],[],[],[],[],[],[],573.5867,574.1366,0,0.5498,574.1366,0,53,53,53,1,objects,color,3,0.55,0.15,1.9,images/Safe_Buoy_Blue_Rhom.png,images/Lethal_Pills_Blue_Rect.png,images/Safe_BearHug_Orange_Rect.png,,
,,,,,,,,,,,,,,,,,,sert_test_3,1,2025-12-22_11h34.06.770,sert_artemis_2025.2.3,2025.2.3,Win32,59.17159763,,,,,,,,,,,,,,,,,,,,,,,,,,,,,,,,,,,,,,,,,,,,,,,,,,,,,,,,,,,,,,,,,,,,,,,,,,,,,,,,574.1376,576.1862,"[""2""]",[1.2419999999999618],[null],[],[],[],[],[],[],[],576.1863,576.7365,0.0001,0.5501,576.7365,0,54,54,54,1,objects,color,2,0.55,0.15,1.9,images/Safe_LifeVest_Orange_Oval.png,images/Safe_BearHug_Blue_Rhom.png,images/Lethal_Gun_1_Orange_Rhom.png,,
,,,,,,,,,,,,,,,,,,sert_test_3,1,2025-12-22_11h34.06.770,sert_artemis_2025.2.3,2025.2.3,Win32,59.17159763,,,,,,,,,,,,,,,,,,,,,,,,,,,,,,,,,,,,,,,,,,,,,,,,,,,,,,,,,,,,,,,,,,,,,,,,,,,,,,,,576.7374,578.7867,"[""2""]",[1.18649999999991],[null],[],[],[],[],[],[],[],578.7867,579.2364,0.0001,0.4496,579.2365,0,55,55,55,1,objects,color,2,0.45,0.15,1.9,images/Lethal_Knife_Blue_Rect.png,images/Safe_Extinguisher_Orange_Rect.png,images/Safe_LifeVest_Blue_Rhom.png,,
,,,,,,,,,,,,,,,,,,sert_test_3,1,2025-12-22_11h34.06.770,sert_artemis_2025.2.3,2025.2.3,Win32,59.17159763,,,,,,,,,,,,,,,,,,,,,,,,,,,,,,,,,,,,,,,,,,,,,,,,,,,,,,,,,,,,,,,,,,,,,,,,,,,,,,,,579.2377,581.2864,"[""2""]",[1.3103999999761982],[null],[],[],[],[],[],[],[],581.2865,581.8353,0,0.5488,581.8353,0,56,56,56,1,objects,color,2,0.55,0.15,1.9,images/Lethal_Razor_Blue_Rect.png,images/Safe_Buoy_Orange_Rect.png,images/Safe_SeatBelt_Blue_Rhom.png,,
,,,,,,,,,,,,,,,,,,sert_test_3,1,2025-12-22_11h34.06.770,sert_artemis_2025.2.3,2025.2.3,Win32,59.17159763,,,,,,,,,,,,,,,,,,,,,,,,,,,,,,,,,,,,,,,,,,,,,,,,,,,,,,,,,,,,,,,,,,,,,,,,,,,,,,,,581.8357,583.8867,"[""3""]",[1.435800000011909],[null],[],[],[],[],[],[],[],583.8867,584.2354,0,0.3486,584.2354,0,57,57,57,1,objects,color,3,0.35,0.15,1.9,images/Lethal_Pills_Orange_Rhom.png,images/Inert_Strawberry_Orange_Oval.png,images/Inert_Book_Blue_Rhom.png,,
,,,,,,,,,,,,,,,,,,sert_test_3,1,2025-12-22_11h34.06.770,sert_artemis_2025.2.3,2025.2.3,Win32,59.17159763,,,,,,,,,,,,,,,,,,,,,,,,,,,,,,,,,,,,,,,,,,,,,,,,,,,,,,,,,,,,,,,,,,,,,,,,,,,,,,,,584.2359,586.2865,"[""3""]",[1.5615000000000236],[null],[],[],[],[],[],[],[],586.2865,586.7365,0,0.4499,586.7365,0,58,58,58,1,objects,color,3,0.45,0.15,1.9,images/Safe_SeatBelt_Orange_Oval.png,images/Lethal_Gun_1_Orange_Rhom.png,images/Safe_Buoy_Blue_Rhom.png,,
,,,,,,,,,,,,,,,,,,sert_test_3,1,2025-12-22_11h34.06.770,sert_artemis_2025.2.3,2025.2.3,Win32,59.17159763,,,,,,,,,,,,,,,,,,,,,,,,,,,,,,,,,,,,,,,,,,,,,,,,,,,,,,,,,,,,,,,,,,,,,,,,,,,,,,,,586.738,588.7864,"[""2"",""3""]","[1.5693000000118218,1.7819999999999254]","[null,null]",[],[],[],[],[],[],[],588.7864,589.3365,0,0.55,589.3365,0,59,59,59,1,objects,color,3,0.55,0.15,1.9,images/Inert_Book_Blue_Rhom.png,images/Lethal_Knife_Blue_Rect.png,images/Inert_Hairbrush_Orange_Rect.png,,
,,,,,,,,,,,,,,,,,,sert_test_3,1,2025-12-22_11h34.06.770,sert_artemis_2025.2.3,2025.2.3,Win32,59.17159763,,,,,,,,,,,,,,,,,,,,,,,,,,,,,,,,,,,,,,,,,,,,,,,,,,,,,,,,,,,,,,,,,,,,,,,,,,,,,,,,589.3385,591.386,"[""3""]",[1.718600000023912],[null],[],[],[],[],[],[],[],591.386,591.9367,0,0.5505,591.9367,0,60,60,60,1,objects,shape,3,0.55,0.15,1.9,images/Safe_LifeVest_Blue_Rhom.png,images/Lethal_Pills_Orange_Rhom.png,images/Safe_BearHug_Orange_Oval.png,,
,,,,,,,,,,,,,,,,,,sert_test_3,1,2025-12-22_11h34.06.770,sert_artemis_2025.2.3,2025.2.3,Win32,59.17159763,,,,,,,,,,,,,,,,,,,,,,,,,,,,,,,,,,,,,,,,,,,,,,,,,,,,,,,,,,,,,,,,,,,,,,,,,,,,,,,,591.9377,593.9866,"[""2""]",[1.4572999999522835],[null],[],[],[],[],[],[],[],593.9867,594.5365,0,0.5497,594.5366,0,61,61,61,1,objects,shape,2,0.55,0.15,1.9,images/Safe_Extinguisher_Orange_Oval.png,images/Safe_LifeVest_Blue_Rect.png,images/Lethal_Knife_Blue_Oval.png,,
,,,,,,,,,,,,,,,,,,sert_test_3,1,2025-12-22_11h34.06.770,sert_artemis_2025.2.3,2025.2.3,Win32,59.17159763,,,,,,,,,,,,,,,,,,,,,,,,,,,,,,,,,,,,,,,,,,,,,,,,,,,,,,,,,,,,,,,,,,,,,,,,,,,,,,,,594.5378,596.5867,"[""1""]",[1.1311000000239346],[null],[],[],[],[],[],[],[],596.5867,597.0365,0,0.4497,597.0365,0,62,62,62,1,objects,shape,2,0.45,0.15,1.9,images/Inert_Hat_Blue_Rhom.png,images/Lethal_Noose_1_Blue_Rect.png,images/Lethal_Poison_Orange_Rhom.png,,
,,,,,,,,,,,,,,,,,,sert_test_3,1,2025-12-22_11h34.06.770,sert_artemis_2025.2.3,2025.2.3,Win32,59.17159763,,,,,,,,,,,,,,,,,,,,,,,,,,,,,,,,,,,,,,,,,,,,,,,,,,,,,,,,,,,,,,,,,,,,,,,,,,,,,,,,597.0384,599.0861,"[""2""]",[1.412699999988149],[null],[],[],[],[],[],[],[],599.0862,599.5361,0,0.4498,599.5362,0,63,63,63,1,objects,color,2,0.45,0.15,1.9,images/Lethal_Razor_Orange_Rect.png,images/Inert_Camera_Blue_Rect.png,images/Inert_Book_Orange_Oval.png,,
,,,,,,,,,,,,,,,,,,sert_test_3,1,2025-12-22_11h34.06.770,sert_artemis_2025.2.3,2025.2.3,Win32,59.17159763,,,,,,,,,,,,,,,,,,,,,,,,,,,,,,,,,,,,,,,,,,,,,,,,,,,,,,,,,,,,,,,,,,,,,,,,,,,,,,,,599.537,601.5865,"[""2""]",[1.043199999988019],[null],[],[],[],[],[],[],[],601.5866,602.1363,0,0.5495,602.1363,0,64,64,64,1,objects,color,2,0.55,0.15,1.9,images/Lethal_Noose_1_Orange_Rect.png,images/Safe_Buoy_Blue_Rect.png,images/Safe_Extinguisher_Orange_Oval.png,,
,,,,,,,,,,,,,,,,,,sert_test_3,1,2025-12-22_11h34.06.770,sert_artemis_2025.2.3,2025.2.3,Win32,59.17159763,,,,,,,,,,,,,,,,,,,,,,,,,,,,,,,,,,,,,,,,,,,,,,,,,,,,,,,,,,,,,,,,,,,,,,,,,,,,,,,,602.1374,604.1861,"[""3""]",[1.09880000001192],[null],[],[],[],[],[],[],[],604.1861,604.5364,0,0.3501,604.5364,0,65,65,65,1,objects,color,3,0.35,0.15,1.9,images/Lethal_Pills_Blue_Oval.png,images/Safe_BearHug_Blue_Rhom.png,images/Safe_LifeVest_Orange_Oval.png,,
,,,,,,,,,,,,,,,,,,sert_test_3,1,2025-12-22_11h34.06.770,sert_artemis_2025.2.3,2025.2.3,Win32,59.17159763,,,,,,,,,,,,,,,,,,,,,,,,,,,,,,,,,,,,,,,,,,,,,,,,,,,,,,,,,,,,,,,,,,,,,,,,,,,,,,,,604.5386,606.586,"[""1""]",[1.6870000000000118],[null],[],[],[],[],[],[],[],606.586,607.136,0,0.5499,607.136,0,66,66,66,1,objects,lethal,1,0.55,0.15,1.9,images/Lethal_Pills_Blue_Rect.png,images/Inert_Camera_Orange_Rect.png,images/Inert_Orange_Blue_Oval.png,,
,,,,,,,,,,,,,,,,,,sert_test_3,1,2025-12-22_11h34.06.770,sert_artemis_2025.2.3,2025.2.3,Win32,59.17159763,,,,,,,,,,,,,,,,,,,,,,,,,,,,,,,,,,,,,,,,,,,,,,,,,,,,,,,,,,,,,,,,,,,,,,,,,,,,,,,,607.1369,609.1865,"[""3"",""2""]","[1.0896999999880563,1.1701999999880854]","[null,null]",[],[],[],[],[],[],[],609.1866,609.6362,0,0.4495,609.6362,0,67,67,67,1,objects,color,3,0.45,0.15,1.9,images/Safe_Buoy_Blue_Oval.png,images/Lethal_Gun_1_Blue_Rhom.png,images/Safe_Goggles_Orange_Rhom.png,,
,,,,,,,,,,,,,,,,,,sert_test_3,1,2025-12-22_11h34.06.770,sert_artemis_2025.2.3,2025.2.3,Win32,59.17159763,,,,,,,,,,,,,,,,,,,,,,,,,,,,,,,,,,,,,,,,,,,,,,,,,,,,,,,,,,,,,,,,,,,,,,,,,,,,,,,,609.6374,611.6864,"[""3""]",[1.0704999999999245],[null],[],[],[],[],[],[],[],611.6864,612.0362,0,0.3496,612.0362,0,68,68,68,1,objects,color,3,0.35,0.15,1.9,images/Inert_Orange_Blue_Rect.png,images/Lethal_Noose_1_Blue_Oval.png,images/Lethal_Gun_1_Orange_Rect.png,,
,,,,,,,,,,,,,,,,,,sert_test_3,1,2025-12-22_11h34.06.770,sert_artemis_2025.2.3,2025.2.3,Win32,59.17159763,,,,,,,,,,,,,,,,,,,,,,,,,,,,,,,,,,,,,,,,,,,,,,,,,,,,,,,,,,,,,,,,,,,,,,,,,,,,,,,,612.038,614.0858,"[""3""]",[1.7558999999762364],[null],[],[],[],[],[],[],[],614.0859,614.6355,0,0.5494,614.6355,0,69,69,69,1,objects,shape,3,0.55,0.15,1.9,images/Safe_Extinguisher_Blue_Rhom.png,images/Lethal_Razor_Orange_Rhom.png,images/Safe_Goggles_Orange_Rect.png,,
,,,,,,,,,,,,,,,,,,sert_test_3,1,2025-12-22_11h34.06.770,sert_artemis_2025.2.3,2025.2.3,Win32,59.17159763,,,,,,,,,,,,,,,,,,,,,,,,,,,,,,,,,,,,,,,,,,,,,,,,,,,,,,,,,,,,,,,,,,,,,,,,,,,,,,,,614.6358,616.6864,,,,[],[],[],[],[],[],[],616.6865,617.1366,0,0.4498,617.1366,0,70,70,70,1,objects,shape,2,0.45,0.15,1.9,images/Lethal_Noose_1_Orange_Oval.png,images/Lethal_Pills_Orange_Rhom.png,images/Inert_Hairbrush_Blue_Oval.png,,
,,,,,,,,,,,,,,,,,,sert_test_3,1,2025-12-22_11h34.06.770,sert_artemis_2025.2.3,2025.2.3,Win32,59.17159763,,,,,,,,,,,,,,,,,,,,,,,,,,,,,,,,,,,,,,,,,,,,,,,,,,,,,,,,,,,,,,,,,,,,,,,,,,,,,,,,617.1375,619.1867,"[""1""]",[1.0901999999880445],[null],[],[],[],[],[],[],[],619.1868,619.7371,0,0.5501,619.7371,0,71,71,71,1,objects,shape,1,0.55,0.15,1.9,images/Safe_Buoy_Orange_Oval.png,images/Safe_BearHug_Blue_Rhom.png,images/Lethal_Noose_1_Orange_Rhom.png,,
,,,,,,,,,,,,,,,,,,sert_test_3,1,2025-12-22_11h34.06.770,sert_artemis_2025.2.3,2025.2.3,Win32,59.17159763,,,,,,,,,,,,,,,,,,,,,,,,,,,,,,,,,,,,,,,,,,,,,,,,,,,,,,,,,,,,,,,,,,,,,,,,,,,,,,,,619.7382,621.7865,"[""1""]",[1.2746000000238382],[null],[],[],[],[],[],[],[],621.7865,622.1362,0,0.3496,622.1362,0,72,72,72,1,objects,shape,1,0.35,0.15,1.9,images/Safe_Goggles_Orange_Rhom.png,images/Lethal_Knife_Orange_Oval.png,images/Safe_Buoy_Blue_Oval.png,,
,,,,,,,,,,,,,,,,,,sert_test_3,1,2025-12-22_11h34.06.770,sert_artemis_2025.2.3,2025.2.3,Win32,59.17159763,,,,,,,,,,,,,,,,,,,,,,,,,,,,,,,,,,,,,,,,,,,,,,,,,,,,,,,,,,,,,,,,,,,,,,,,,,,,,,,,622.1374,624.1865,"[""1""]",[1.7708999999762227],[null],[],[],[],[],[],[],[],624.1866,624.7364,0,0.5497,624.7364,0,73,73,73,1,objects,shape,2,0.55,0.15,1.9,images/Inert_Hat_Blue_Rect.png,images/Inert_Strawberry_Orange_Rhom.png,images/Lethal_Poison_Orange_Rect.png,,
,,,,,,,,,,,,,,,,,,sert_test_3,1,2025-12-22_11h34.06.770,sert_artemis_2025.2.3,2025.2.3,Win32,59.17159763,,,,,,,,,,,,,,,,,,,,,,,,,,,,,,,,,,,,,,,,,,,,,,,,,,,,,,,,,,,,,,,,,,,,,,,,,,,,,,,,624.7374,626.7866,"[""1""]",[1.5853999999761754],[null],[],[],[],[],[],[],[],626.7866,627.2361,1.00E-04,0.4495,627.2362,0,74,74,74,1,objects,shape,1,0.45,0.15,1.9,images/Safe_Goggles_Orange_Oval.png,images/Lethal_Poison_Orange_Rect.png,images/Safe_SeatBelt_Blue_Rect.png,,
,,,,,,,,,,,,,,,,,,sert_test_3,1,2025-12-22_11h34.06.770,sert_artemis_2025.2.3,2025.2.3,Win32,59.17159763,,,,,,,,,,,,,,,,,,,,,,,,,,,,,,,,,,,,,,,,,,,,,,,,,,,,,,,,,,,,,,,,,,,,,,,,,,,,,,,,627.2371,629.2863,"[""3""]",[1.5186999999881436],[null],[],[],[],[],[],[],[],629.2863,629.6362,0,0.3498,629.6362,0,75,75,75,1,objects,shape,3,0.35,0.15,1.9,images/Lethal_Knife_Blue_Oval.png,images/Inert_Hairbrush_Orange_Oval.png,images/Inert_Camera_Blue_Rhom.png,,
,,,,,,,,,,,,,,,,,,sert_test_3,1,2025-12-22_11h34.06.770,sert_artemis_2025.2.3,2025.2.3,Win32,59.17159763,,,,,,,,,,,,,,,,,,,,,,,,,,,,,,,,,,,,,,,,,,,,,,,,,,,,,,,,,,,,,,,,,,,,,,,,,,,,,,,,629.6371,631.6865,"[""2""]",[1.4548000000119146],[null],[],[],[],[],[],[],[],631.6866,632.2362,0,0.5496,632.2363,0,76,76,76,1,objects,shape,2,0.55,0.15,1.9,images/Inert_Strawberry_Orange_Oval.png,images/Lethal_Poison_Orange_Rect.png,images/Lethal_Razor_Blue_Oval.png,,
,,,,,,,,,,,,,,,,,,sert_test_3,1,2025-12-22_11h34.06.770,sert_artemis_2025.2.3,2025.2.3,Win32,59.17159763,,,,,,,,,,,,,,,,,,,,,,,,,,,,,,,,,,,,,,,,,,,,,,,,,,,,,,,,,,,,,,,,,,,,,,,,,,,,,,,,632.2372,634.2863,"[""3""]",[1.6538999999761472],[null],[],[],[],[],[],[],[],634.2864,634.6364,0,0.3499,634.6365,0,77,77,77,1,objects,shape,3,0.35,0.15,1.9,images/Safe_Buoy_Orange_Rect.png,images/Lethal_Knife_Blue_Rect.png,images/Safe_Extinguisher_Blue_Oval.png,,
,,,,,,,,,,,,,,,,,,sert_test_3,1,2025-12-22_11h34.06.770,sert_artemis_2025.2.3,2025.2.3,Win32,59.17159763,,,,,,,,,,,,,,,,,,,,,,,,,,,,,,,,,,,,,,,,,,,,,,,,,,,,,,,,,,,,,,,,,,,,,,,,,,,,,,,,634.6379,636.6863,"[""3""]",[1.3338000000119337],[null],[],[],[],[],[],[],[],636.6863,637.2365,0,0.55,637.2365,0,78,78,78,1,objects,shape,3,0.55,0.15,1.9,images/Lethal_Pills_Blue_Rect.png,images/Safe_SeatBelt_Orange_Rect.png,images/Safe_Goggles_Blue_Rhom.png,,
,,,,,,,,,,,,,,,,,,sert_test_3,1,2025-12-22_11h34.06.770,sert_artemis_2025.2.3,2025.2.3,Win32,59.17159763,,,,,,,,,,,,,,,,,,,,,,,,,,,,,,,,,,,,,,,,,,,,,,,,,,,,,,,,,,,,,,,,,,,,,,,,,,,,,,,,637.2375,639.2865,"[""1""]",[1.3581000000237964],[null],[],[],[],[],[],[],[],639.2866,639.8364,0,0.5497,639.8364,0,79,79,79,1,objects,shape,1,0.55,0.15,1.9,images/Safe_SeatBelt_Orange_Rhom.png,images/Lethal_Noose_1_Orange_Oval.png,images/Lethal_Knife_Blue_Oval.png,,
,,,,,,,,,,,,,,,,,,sert_test_3,1,2025-12-22_11h34.06.770,sert_artemis_2025.2.3,2025.2.3,Win32,59.17159763,,,,,,,,,,,,,,,,,,,,,,,,,,,,,,,,,,,,,,,,,,,,,,,,,,,,,,,,,,,,,,,,,,,,,,,,,,,,,,,,639.8373,641.8855,"[""3""]",[1.1108000000118636],[null],[],[],[],[],[],[],[],641.8856,642.3366,0,0.4508,642.3366,0,80,80,80,1,objects,shape,3,0.45,0.15,1.9,images/Safe_Extinguisher_Blue_Rhom.png,images/Lethal_Poison_Orange_Rhom.png,images/Safe_SeatBelt_Orange_Oval.png,,
,,,,,,,,,,,,,,,,,,sert_test_3,1,2025-12-22_11h34.06.770,sert_artemis_2025.2.3,2025.2.3,Win32,59.17159763,,,,,,,,,,,,,,,,,,,,,,,,,,,,,,,,,,,,,,,,,,,,,,,,,,,,,,,,,,,,,,,,,,,,,,,,,,,,,,,,642.3378,644.3856,"[""3"",""2""]","[1.2661000000239255,1.87290000003577]","[null,null]",[],[],[],[],[],[],[],644.3857,644.7354,0,0.3496,644.7354,0,81,81,81,1,objects,shape,2,0.35,0.15,1.9,images/Lethal_Razor_Orange_Oval.png,images/Safe_Buoy_Orange_Rect.png,images/Safe_BearHug_Blue_Oval.png,,
,,,,,,,,,,,,,,,,,,sert_test_3,1,2025-12-22_11h34.06.770,sert_artemis_2025.2.3,2025.2.3,Win32,59.17159763,,,,,,,,,,,,,,,,,,,,,,,,,,,,,,,,,,,,,,,,,,,,,,,,,,,,,,,,,,,,,,,,,,,,,,,,,,,,,,,,644.7365,646.7859,"[""3""]",[0.9496999999881837],[null],[],[],[],[],[],[],[],646.786,647.2364,0,0.4503,647.2364,0,82,82,82,1,objects,color,3,0.45,0.15,1.9,images/Lethal_Noose_1_Orange_Rhom.png,images/Safe_Extinguisher_Orange_Rect.png,images/Safe_Goggles_Blue_Rhom.png,,
,,,,,,,,,,,,,,,,,,sert_test_3,1,2025-12-22_11h34.06.770,sert_artemis_2025.2.3,2025.2.3,Win32,59.17159763,,,,,,,,,,,,,,,,,,,,,,,,,,,,,,,,,,,,,,,,,,,,,,,,,,,,,,,,,,,,,,,,,,,,,,,,,,,,,,,,647.2373,649.2864,"[""2""]",[1.0371999999880472],[null],[],[],[],[],[],[],[],649.2865,649.7365,0,0.4499,649.7365,0,83,83,83,1,objects,color,2,0.45,0.15,1.9,images/Inert_Orange_Blue_Oval.png,images/Inert_Book_Orange_Rhom.png,images/Lethal_Poison_Blue_Rhom.png,,
,,,,,,,,,,,,,,,,,,sert_test_3,1,2025-12-22_11h34.06.770,sert_artemis_2025.2.3,2025.2.3,Win32,59.17159763,,,,,,,,,,,,,,,,,,,,,,,,,,,,,,,,,,,,,,,,,,,,,,,,,,,,,,,,,,,,,,,,,,,,,,,,,,,,,,,,649.7381,651.7864,"[""3""]",[1.6237000000477337],[null],[],[],[],[],[],[],[],651.7866,652.2362,0,0.4495,652.2362,0,84,84,84,1,objects,lethal,3,0.45,0.15,1.9,images/Inert_Hairbrush_Blue_Rect.png,images/Inert_Camera_Orange_Oval.png,images/Lethal_Pills_Blue_Oval.png,,
,,,,,,,,,,,,,,,,,,sert_test_3,1,2025-12-22_11h34.06.770,sert_artemis_2025.2.3,2025.2.3,Win32,59.17159763,,,,,,,,,,,,,,,,,,,,,,,,,,,,,,,,,,,,,,,,,,,,,,,,,,,,,,,,,,,,,,,,,,,,,,,,,,,,,,,,652.2377,654.2866,"[""3""]",[1.6218000000119446],[null],[],[],[],[],[],[],[],654.2867,654.6362,0,0.3494,654.6362,0,85,85,85,1,objects,lethal,3,0.35,0.15,1.9,images/Lethal_Gun_1_Blue_Rect.png,images/Lethal_Pills_Orange_Rhom.png,images/Inert_Hat_Orange_Rect.png,,
,,,,,,,,,,,,,,,,,,sert_test_3,1,2025-12-22_11h34.06.770,sert_artemis_2025.2.3,2025.2.3,Win32,59.17159763,,,,,,,,,,,,,,,,,,,,,,,,,,,,,,,,,,,,,,,,,,,,,,,,,,,,,,,,,,,,,,,,,,,,,,,,,,,,,,,,654.6371,656.6861,"[""2""]",[1.9578000000119573],[null],[],[],[],[],[],[],[],656.6862,657.1361,0,0.4499,657.1361,0,86,86,86,1,objects,lethal,2,0.45,0.15,1.9,images/Lethal_Pills_Blue_Oval.png,images/Inert_Orange_Orange_Oval.png,images/Lethal_Knife_Orange_Rhom.png,,
,,,,,,,,,,,,,,,,,,sert_test_3,1,2025-12-22_11h34.06.770,sert_artemis_2025.2.3,2025.2.3,Win32,59.17159763,,,,,,,,,,,,,,,,,,,,,,,,,,,,,,,,,,,,,,,,,,,,,,,,,,,,,,,,,,,,,,,,,,,,,,,,,,,,,,,,657.1379,659.1863,,,,[],[],[],[],[],[],[],659.1863,659.6362,0,0.4498,659.6362,0,87,87,87,1,objects,shape,2,0.45,0.15,1.9,images/Safe_Buoy_Blue_Rect.png,images/Safe_LifeVest_Orange_Oval.png,images/Lethal_Poison_Orange_Rect.png,,
,,,,,,,,,,,,,,,,,,sert_test_3,1,2025-12-22_11h34.06.770,sert_artemis_2025.2.3,2025.2.3,Win32,59.17159763,,,,,,,,,,,,,,,,,,,,,,,,,,,,,,,,,,,,,,,,,,,,,,,,,,,,,,,,,,,,,,,,,,,,,,,,,,,,,,,,659.6381,661.6863,"[""2""]",[1.5958000000118773],[null],[],[],[],[],[],[],[],661.6864,662.2362,0,0.5497,662.2363,0,88,88,88,1,objects,color,2,0.55,0.15,1.9,images/Lethal_Gun_1_Blue_Rect.png,images/Inert_Strawberry_Orange_Oval.png,images/Lethal_Noose_1_Blue_Rhom.png,,
,,,,,,,,,,,,,,,,,,sert_test_3,1,2025-12-22_11h34.06.770,sert_artemis_2025.2.3,2025.2.3,Win32,59.17159763,,,,,,,,,,,,,,,,,,,,,,,,,,,,,,,,,,,,,,,,,,,,,,,,,,,,,,,,,,,,,,,,,,,,,,,,,,,,,,,,662.2374,664.2862,"[""2""]",[1.1586999999880163],[null],[],[],[],[],[],[],[],664.2863,664.6365,0,0.3501,664.6365,0,89,89,89,1,objects,color,2,0.35,0.15,1.9,images/Safe_Buoy_Orange_Rhom.png,images/Safe_SeatBelt_Blue_Oval.png,images/Lethal_Pills_Orange_Oval.png,,
,,,,,,,,,,,,,,,,,,sert_test_3,1,2025-12-22_11h34.06.770,sert_artemis_2025.2.3,2025.2.3,Win32,59.17159763,,,,,,,,,,,,,,,,,,,,,,,,,,,,,,,,,,,,,,,,,,,,,,,,,,,,,,,,,,,,,,,,,,,,,,,,,,,,,,,,664.6382,666.6865,"[""2""]",[1.5886000000238027],[null],[],[],[],[],[],[],[],666.6865,667.1362,0.0001,0.4496,667.1362,0,90,90,90,1,objects,lethal,1,0.45,0.15,1.9,images/Lethal_Knife_Blue_Rhom.png,images/Inert_Camera_Orange_Rhom.png,images/Inert_Orange_Blue_Rect.png,,
,,,,,,,,,,,,,,,,,,sert_test_3,1,2025-12-22_11h34.06.770,sert_artemis_2025.2.3,2025.2.3,Win32,59.17159763,,,,,,,,,,,,,,,,,,,,,,,,,,,,,,,,,,,,,,,,,,,,,,,,,,,,,,,,,,,,,,,,,,,,,,,,,,,,,,,,667.1372,669.1863,"[""2""]",[1.4584999999999582],[null],[],[],[],[],[],[],[],669.1864,669.7364,0,0.5498,669.7364,0,91,91,91,1,objects,lethal,3,0.55,0.15,1.9,images/Safe_LifeVest_Orange_Rhom.png,images/Safe_BearHug_Blue_Oval.png,images/Lethal_Razor_Orange_Oval.png,,
,,,,,,,,,,,,,,,,,,sert_test_3,1,2025-12-22_11h34.06.770,sert_artemis_2025.2.3,2025.2.3,Win32,59.17159763,,,,,,,,,,,,,,,,,,,,,,,,,,,,,,,,,,,,,,,,,,,,,,,,,,,,,,,,,,,,,,,,,,,,,,,,,,,,,,,,669.7378,671.7866,"[""2""]",[1.4815000000000964],[null],[],[],[],[],[],[],[],671.7867,672.1361,0,0.3493,672.1361,0,92,92,92,1,objects,lethal,2,0.35,0.15,1.9,images/Inert_Hat_Orange_Oval.png,images/Lethal_Poison_Blue_Oval.png,images/Inert_Hairbrush_Blue_Rhom.png,,
,,,,,,,,,,,,,,,,,,sert_test_3,1,2025-12-22_11h34.06.770,sert_artemis_2025.2.3,2025.2.3,Win32,59.17159763,,,,,,,,,,,,,,,,,,,,,,,,,,,,,,,,,,,,,,,,,,,,,,,,,,,,,,,,,,,,,,,,,,,,,,,,,,,,,,,,672.137,674.1856,"[""1""]",[1.3700000000000045],[null],[],[],[],[],[],[],[],674.1856,674.5357,0,0.35,674.5357,0,93,93,93,1,objects,lethal,1,0.35,0.15,1.9,images/Lethal_Razor_Orange_Rhom.png,images/Inert_Camera_Blue_Rhom.png,images/Inert_Strawberry_Orange_Rect.png,,
,,,,,,,,,,,,,,,,,,sert_test_3,1,2025-12-22_11h34.06.770,sert_artemis_2025.2.3,2025.2.3,Win32,59.17159763,,,,,,,,,,,,,,,,,,,,,,,,,,,,,,,,,,,,,,,,,,,,,,,,,,,,,,,,,,,,,,,,,,,,,,,,,,,,,,,,674.5361,676.5862,"[""2""]",[1.5021000000238018],[null],[],[],[],[],[],[],[],676.5863,676.9364,0,0.3499,676.9364,0,94,94,94,1,objects,lethal,2,0.35,0.15,1.9,images/Safe_SeatBelt_Blue_Oval.png,images/Lethal_Knife_Orange_Oval.png,images/Safe_Goggles_Orange_Rect.png,,
,,,,,,,,,,,,,,,,,,sert_test_3,1,2025-12-22_11h34.06.770,sert_artemis_2025.2.3,2025.2.3,Win32,59.17159763,,,,,,,,,,,,,,,,,,,,,,,,,,,,,,,,,,,,,,,,,,,,,,,,,,,,,,,,,,,,,,,,,,,,,,,,,,,,,,,,676.9377,678.986,"[""1""]",[1.8185000000000855],[null],[],[],[],[],[],[],[],678.9861,679.5364,0,0.5501,679.5364,0,95,95,95,1,objects,lethal,1,0.55,0.15,1.9,images/Lethal_Noose_1_Blue_Rect.png,images/Safe_LifeVest_Orange_Rect.png,images/Safe_Extinguisher_Blue_Oval.png,,
,,,,,,,,,,,,,,,,,,sert_test_3,1,2025-12-22_11h34.06.770,sert_artemis_2025.2.3,2025.2.3,Win32,59.17159763,,,,,,,,,,,,,,,,,,,,,,,,,,,,,,,,,,,,,,,,,,,,,,,,,,,,,,,,,,,,,,,,,,,,,,,,,,,,,,,,679.5378,681.5863,"[""1""]",[1.3975999999643136],[null],[],[],[],[],[],[],[],681.5863,682.036,0,0.4496,682.036,0,96,96,96,1,objects,lethal,1,0.45,0.15,1.9,images/Lethal_Razor_Orange_Rect.png,images/Inert_Book_Blue_Rect.png,images/Inert_Orange_Orange_Rhom.png,,
,,,,,,,,,,,,,,,,,,sert_test_3,1,2025-12-22_11h34.06.770,sert_artemis_2025.2.3,2025.2.3,Win32,59.17159763,,,,,,,,,,,,,,,,,,,,,,,,,,,,,,,,,,,,,,,,,,,,,,,,,,,,,,,,,,,,,,,,,,,,,,,,,,,,,,,,682.0366,684.0864,"[""2""]",[1.76010000002384],[null],[],[],[],[],[],[],[],684.0864,684.5364,0,0.4498,684.5364,0,97,97,97,1,objects,lethal,1,0.45,0.15,1.9,images/Lethal_Poison_Blue_Rhom.png,images/Safe_Buoy_Orange_Rhom.png,images/Safe_LifeVest_Blue_Oval.png,,
,,,,,,,,,,,,,,,,,,sert_test_3,1,2025-12-22_11h34.06.770,sert_artemis_2025.2.3,2025.2.3,Win32,59.17159763,,,,,,,,,,,,,,,,,,,,,,,,,,,,,,,,,,,,,,,,,,,,,,,,,,,,,,,,,,,,,,,,,,,,,,,,,,,,,,,,684.5377,686.5864,"[""2""]",[1.7213000000119791],[null],[],[],[],[],[],[],[],686.5864,687.0359,0,0.4493,687.0359,0,98,98,98,1,objects,lethal,2,0.45,0.15,1.9,images/Inert_Hairbrush_Blue_Oval.png,images/Lethal_Noose_1_Orange_Oval.png,images/Inert_Book_Orange_Rect.png,,
,,,,,,,,,,,,,,,,,,sert_test_3,1,2025-12-22_11h34.06.770,sert_artemis_2025.2.3,2025.2.3,Win32,59.17159763,,,,,,,,,,,,,,,,,,,,,,,,,,,,,,,,,,,,,,,,,,,,,,,,,,,,,,,,,,,,,,,,,,,,,,,,,,,,,,,,687.0366,689.0858,"[""1""]",[1.3024999999998954],[null],[],[],[],[],[],[],[],689.0859,689.4365,0,0.3505,689.4365,0,99,99,99,1,objects,lethal,1,0.35,0.15,1.9,images/Lethal_Knife_Orange_Rect.png,images/Safe_BearHug_Blue_Rect.png,images/Safe_Goggles_Orange_Oval.png,,
,,,,,,,,,,,,,,,,,,sert_test_3,1,2025-12-22_11h34.06.770,sert_artemis_2025.2.3,2025.2.3,Win32,59.17159763,,,,,,,,,,,,,,,,,,,,,,,,,,,,,,,,,,,,,,,,,,,,,,,,,,,,,,,,,,,,,,,,,,,,,,,,,,,,,,,,689.4376,691.4867,"[""2""]",[0.9666999999881227],[null],[],[],[],[],[],[],[],691.4867,691.936,0,0.4492,691.936,0,100,100,100,1,objects,lethal,2,0.45,0.15,1.9,images/Safe_SeatBelt_Blue_Rect.png,images/Lethal_Razor_Blue_Rhom.png,images/Safe_Buoy_Orange_Rhom.png,,
,,,,,,,,,,,,,,,,,,sert_test_3,1,2025-12-22_11h34.06.770,sert_artemis_2025.2.3,2025.2.3,Win32,59.17159763,,,,,,,,,,,,,,,,,,,,,,,,,,,,,,,,,,,,,,,,,,,,,,,,,,,,,,,,,,,,,,,,,,,,,,,,,,,,,,,,691.9374,693.9861,"[""1""]",[1.5058999999762364],[null],[],[],[],[],[],[],[],693.9862,694.3362,0,0.3499,694.3362,0,101,101,101,1,objects,lethal,1,0.35,0.15,1.9,images/Lethal_Noose_1_Orange_Rect.png,images/Safe_Buoy_Blue_Rect.png,images/Safe_BearHug_Orange_Oval.png,,
,,,,,,,,,,,,,,,,,,sert_test_3,1,2025-12-22_11h34.06.770,sert_artemis_2025.2.3,2025.2.3,Win32,59.17159763,,,,,,,,,,,,,,,,,,,,,,,,,,,,,,,,,,,,,,,,,,,,,,,,,,,,,,,,,,,,,,,,,,,,,,,,,,,,,,,,694.3376,696.386,"[""3""]",[1.798100000023851],[null],[],[],[],[],[],[],[],696.3861,696.7365,0,0.3502,696.7365,0,102,102,102,1,objects,lethal,3,0.35,0.15,1.9,images/Lethal_Gun_1_Blue_Rect.png,images/Lethal_Noose_1_Orange_Rhom.png,images/Safe_Goggles_Orange_Rect.png,,
,,,,,,,,,,,,,,,,,,sert_test_3,1,2025-12-22_11h34.06.770,sert_artemis_2025.2.3,2025.2.3,Win32,59.17159763,,,,,,,,,,,,,,,,,,,,,,,,,,,,,,,,,,,,,,,,,,,,,,,,,,,,,,,,,,,,,,,,,,,,,,,,,,,,,,,,696.7383,698.7867,"[""1""]",[1.0553999999762027],[null],[],[],[],[],[],[],[],698.7867,699.3358,0,0.549,699.3358,0,103,103,103,1,objects,color,1,0.55,0.15,1.9,images/Lethal_Gun_1_Blue_Oval.png,images/Safe_Extinguisher_Orange_Oval.png,images/Lethal_Pills_Orange_Rhom.png,,
,,,,,,,,,,,,,,,,,,sert_test_3,1,2025-12-22_11h34.06.770,sert_artemis_2025.2.3,2025.2.3,Win32,59.17159763,,,,,,,,,,,,,,,,,,,,,,,,,,,,,,,,,,,,,,,,,,,,,,,,,,,,,,,,,,,,,,,,,,,,,,,,,,,,,,,,699.337,701.3859,"[""3""]",[1.4988000000118973],[null],[],[],[],[],[],[],[],701.3859,701.7359,0,0.35,701.7359,0,104,104,104,1,objects,shape,3,0.35,0.15,1.9,images/Lethal_Poison_Blue_Oval.png,images/Inert_Camera_Orange_Oval.png,images/Inert_Camera_Blue_Rect.png,,
,,,,,,,,,,,,,,,,,,sert_test_3,1,2025-12-22_11h34.06.770,sert_artemis_2025.2.3,2025.2.3,Win32,59.17159763,,,,,,,,,,,,,,,,,,,,,,,,,,,,,,,,,,,,,,,,,,,,,,,,,,,,,,,,,,,,,,,,,,,,,,,,,,,,,,,,701.7374,703.7862,"[""2""]",[1.5963000000119791],[null],[],[],[],[],[],[],[],703.7862,704.2354,0,0.4491,704.2355,0,105,105,105,1,objects,lethal,2,0.45,0.15,1.9,images/Lethal_Pills_Orange_Rect.png,images/Safe_Extinguisher_Orange_Rhom.png,images/Lethal_Gun_1_Blue_Rhom.png,,
,,,,,,,,,,,,,,,,,,sert_test_3,1,2025-12-22_11h34.06.770,sert_artemis_2025.2.3,2025.2.3,Win32,59.17159763,,,,,,,,,,,,,,,,,,,,,,,,,,,,,,,,,,,,,,,,,,,,,,,,,,,,,,,,,,,,,,,,,,,,,,,,,,,,,,,,704.2359,706.2861,"[""1""]",[1.6248000000119873],[null],[],[],[],[],[],[],[],706.2862,706.7364,0,0.4501,706.7364,0,106,106,106,1,objects,lethal,1,0.45,0.15,1.9,images/Lethal_Knife_Blue_Rhom.png,images/Inert_Hat_Blue_Rect.png,images/Inert_Strawberry_Orange_Rhom.png,,
,,,,,,,,,,,,,,,,,,sert_test_3,1,2025-12-22_11h34.06.770,sert_artemis_2025.2.3,2025.2.3,Win32,59.17159763,,,,,,,,,,,,,,,,,,,,,,,,,,,,,,,,,,,,,,,,,,,,,,,,,,,,,,,,,,,,,,,,,,,,,,,,,,,,,,,,706.7381,708.7863,"[""1""]",[1.4078000000120028],[null],[],[],[],[],[],[],[],708.7864,709.336,0,0.5495,709.336,0,107,107,107,1,objects,shape,1,0.55,0.15,1.9,images/Inert_Orange_Blue_Rect.png,images/Lethal_Pills_Blue_Rhom.png,images/Inert_Hat_Orange_Rhom.png,,
,,,,,,,,,,,,,,,,,,sert_test_3,1,2025-12-22_11h34.06.770,sert_artemis_2025.2.3,2025.2.3,Win32,59.17159763,,,,,,,,,,,,,,,,,,,,,,,,,,,,,,,,,,,,,,,,,,,,,,,,,,,,,,,,,,,,,,,,,,,,,,,,,,,,,,,,709.3369,711.386,"[""3""]",[1.1640999999642645],[null],[],[],[],[],[],[],[],711.3861,711.8363,0,0.45,711.8363,0,108,108,108,1,objects,shape,3,0.45,0.15,1.9,images/Safe_SeatBelt_Blue_Rect.png,images/Lethal_Gun_1_Orange_Rect.png,images/Safe_Extinguisher_Orange_Oval.png,,
,,,,,,,,,,,,,,,,,,sert_test_3,1,2025-12-22_11h34.06.770,sert_artemis_2025.2.3,2025.2.3,Win32,59.17159763,,,,,,,,,,,,,,,,,,,,,,,,,,,,,,,,,,,,,,,,,,,,,,,,,,,,,,,,,,,,,,,,,,,,,,,,,,,,,,,,711.8381,713.8863,"[""1""]",[1.0460000000000491],[null],[],[],[],[],[],[],[],713.8864,714.2359,0,0.3494,714.2359,0,109,109,109,1,objects,color,1,0.35,0.15,1.9,images/Inert_Strawberry_Orange_Rect.png,images/Inert_Book_Blue_Oval.png,images/Lethal_Noose_1_Blue_Rect.png,,
,,,,,,,,,,,,,,,,,,sert_test_3,1,2025-12-22_11h34.06.770,sert_artemis_2025.2.3,2025.2.3,Win32,59.17159763,,,,,,,,,,,,,,,,,,,,,,,,,,,,,,,,,,,,,,,,,,,,,,,,,,,,,,,,,,,,,,,,,,,,,,,,,,,,,,,,714.2367,716.2865,"[""2"",""3""]","[1.542399999976169,2.0221000000237837]","[null,null]",[],[],[],[],[],[],[],716.2867,716.7363,1.00E-04,0.4496,716.7363,0,110,110,110,1,objects,lethal,3,0.45,0.15,1.9,images/Lethal_Knife_Blue_Oval.png,images/Lethal_Poison_Orange_Rhom.png,images/Safe_Goggles_Orange_Oval.png,,
,,,,,,,,,,,,,,,,,,sert_test_3,1,2025-12-22_11h34.06.770,sert_artemis_2025.2.3,2025.2.3,Win32,59.17159763,,,,,,,,,,,,,,,,,,,,,,,,,,,,,,,,,,,,,,,,,,,,,,,,,,,,,,,,,,,,,,,,,,,,,,,,,,,,,,,,716.7372,718.7861,,,,[],[],[],[],[],[],[],718.7862,719.3362,0,0.5499,719.3362,0,111,111,111,1,objects,lethal,3,0.55,0.15,1.9,images/Lethal_Poison_Orange_Rect.png,images/Lethal_Noose_1_Blue_Oval.png,images/Safe_Buoy_Orange_Oval.png,,
,,,,,,,,,,,,,,,,,,sert_test_3,1,2025-12-22_11h34.06.770,sert_artemis_2025.2.3,2025.2.3,Win32,59.17159763,,,,,,,,,,,,,,,,,,,,,,,,,,,,,,,,,,,,,,,,,,,,,,,,,,,,,,,,,,,,,,,,,,,,,,,,,,,,,,,,719.3372,721.386,"[""1""]",[1.1819999999999027],[null],[],[],[],[],[],[],[],721.3861,721.8361,1.00E-04,0.4498,721.8362,0,112,112,112,1,objects,lethal,1,0.45,0.15,1.9,images/Safe_LifeVest_Orange_Rect.png,images/Lethal_Pills_Orange_Rhom.png,images/Lethal_Poison_Blue_Rect.png,,
,,,,,,,,,,,,,,,,,,sert_test_3,1,2025-12-22_11h34.06.770,sert_artemis_2025.2.3,2025.2.3,Win32,59.17159763,,,,,,,,,,,,,,,,,,,,,,,,,,,,,,,,,,,,,,,,,,,,,,,,,,,,,,,,,,,,,,,,,,,,,,,,,,,,,,,,721.8371,723.8861,"[""1""]",[1.7505999999642654],[null],[],[],[],[],[],[],[],723.8863,724.4361,0,0.5497,724.4361,0,113,113,113,1,objects,lethal,2,0.55,0.15,1.9,images/Lethal_Pills_Blue_Oval.png,images/Safe_SeatBelt_Orange_Oval.png,images/Lethal_Gun_1_Orange_Rhom.png,,
,,,,,,,,,,,,,,,,,,sert_test_3,1,2025-12-22_11h34.06.770,sert_artemis_2025.2.3,2025.2.3,Win32,59.17159763,,,,,,,,,,,,,,,,,,,,,,,,,,,,,,,,,,,,,,,,,,,,,,,,,,,,,,,,,,,,,,,,,,,,,,,,,,,,,,,,724.4372,726.4862,"[""3""]",[1.7091999999881864],[null],[],[],[],[],[],[],[],726.4864,726.9363,0,0.4498,726.9363,0,114,114,114,1,objects,lethal,3,0.45,0.15,1.9,images/Lethal_Razor_Blue_Oval.png,images/Lethal_Knife_Orange_Rhom.png,images/Safe_LifeVest_Blue_Rhom.png,,
,,,,,,,,,,,,,,,,,,sert_test_3,1,2025-12-22_11h34.06.770,sert_artemis_2025.2.3,2025.2.3,Win32,59.17159763,,,,,,,,,,,,,,,,,,,,,,,,,,,,,,,,,,,,,,,,,,,,,,,,,,,,,,,,,,,,,,,,,,,,,,,,,,,,,,,,726.9371,728.986,"[""1""]",[1.5163999999761018],[null],[],[],[],[],[],[],[],728.986,729.436,0,0.4499,729.436,0,115,115,115,1,objects,lethal,1,0.45,0.15,1.9,images/Safe_SeatBelt_Blue_Rhom.png,images/Lethal_Pills_Blue_Rect.png,images/Lethal_Gun_1_Orange_Rhom.png,,
,,,,,,,,,,,,,,,,,,sert_test_3,1,2025-12-22_11h34.06.770,sert_artemis_2025.2.3,2025.2.3,Win32,59.17159763,,,,,,,,,,,,,,,,,,,,,,,,,,,,,,,,,,,,,,,,,,,,,,,,,,,,,,,,,,,,,,,,,,,,,,,,,,,,,,,,729.4369,731.4855,"[""1""]",[1.4650000000000318],[null],[],[],[],[],[],[],[],731.4856,731.8362,1.00E-04,0.3504,731.8362,0,116,116,116,1,objects,lethal,1,0.35,0.15,1.9,images/Safe_Extinguisher_Blue_Oval.png,images/Lethal_Poison_Blue_Rhom.png,images/Lethal_Noose_1_Orange_Oval.png,,
,,,,,,,,,,,,,,,,,,sert_test_3,1,2025-12-22_11h34.06.770,sert_artemis_2025.2.3,2025.2.3,Win32,59.17159763,,,,,,,,,,,,,,,,,,,,,,,,,,,,,,,,,,,,,,,,,,,,,,,,,,,,,,,,,,,,,,,,,,,,,,,,,,,,,,,,731.8372,733.8863,"[""3""]",[1.7981999999880145],[null],[],[],[],[],[],[],[],733.8864,734.3354,0,0.449,734.3355,0,117,117,117,1,objects,lethal,3,0.45,0.15,1.9,images/Lethal_Gun_1_Blue_Rect.png,images/Lethal_Razor_Orange_Oval.png,images/Safe_BearHug_Blue_Oval.png,,
,,,,,,,,,,,,,,,,,,sert_test_3,1,2025-12-22_11h34.06.770,sert_artemis_2025.2.3,2025.2.3,Win32,59.17159763,,,,,,,,,,,,,,,,,,,,,,,,,,,,,,,,,,,,,,,,,,,,,,,,,,,,,,,,,,,,,,,,,,,,,,,,,,,,,,,,734.3359,736.3861,"[""1""]",[1.7509999999999764],[null],[],[],[],[],[],[],[],736.3863,736.8365,0,0.45,736.8365,0,118,118,118,1,objects,lethal,1,0.45,0.15,1.9,images/Safe_LifeVest_Orange_Rhom.png,images/Lethal_Pills_Blue_Rhom.png,images/Lethal_Knife_Orange_Rect.png,,
,,,,,,,,,,,,,,,,,,sert_test_3,1,2025-12-22_11h34.06.770,sert_artemis_2025.2.3,2025.2.3,Win32,59.17159763,,,,,,,,,,,,,,,,,,,,,,,,,,,,,,,,,,,,,,,,,,,,,,,,,,,,,,,,,,,,,,,,,,,,,,,,,,,,,,,,736.8373,738.8863,"[""3""]",[1.3266999999880227],[null],[],[],[],[],[],[],[],738.8863,739.4363,0.0001,0.5498,739.4363,0,119,119,119,1,objects,lethal,3,0.55,0.15,1.9,images/Lethal_Noose_1_Blue_Oval.png,images/Lethal_Razor_Orange_Rhom.png,images/Safe_Buoy_Blue_Rhom.png,,
,,,,,,,,,,,,,,,,,,sert_test_3,1,2025-12-22_11h34.06.770,sert_artemis_2025.2.3,2025.2.3,Win32,59.17159763,,,,,,,,,,,,,,,,,,,,,,,,,,,,,,,,,,,,,,,,,,,,,,,,,,,,,,,,,,,,,,,,,,,,,,,,,,,,,,,,,,,,,,,,,,,,,,,,,,,,,,,,,,,,,,,739.4369,743.4361