init.started,init.stopped,device_primaryInput,device_screenWidth,device_screenHeight,device_hasTouch,device_hasKeyboard,device_hasMouse,device_userAgent,init_key_input.keys,init_key_input.rt,init_key_input.duration,init_touch_input.x,init_touch_input.y,init_touch_input.leftButton,init_touch_input.midButton,init_touch_input.rightButton,init_touch_input.time,participant,session,date,expName,psychopyVersion,OS,frameRate,inst_select.started,inst_select.stopped,vid_inst_reps,txt_inst_reps,select_video.numClicks,select_video.timesOn,select_video.timesOff,select_text.numClicks,select_text.timesOn,select_text.timesOff,TitleScreen.started,TitleScreen.stopped,key_resp.keys,key_resp.rt,key_resp.duration,touch_resp.x,touch_resp.y,touch_resp.leftButton,touch_resp.midButton,touch_resp.rightButton,touch_resp.time,intruct1text,Instructions.started,Instructions.stopped,key_resp_2.keys,key_resp_2.rt,key_resp_2.duration,touch_resp_2.x,touch_resp_2.y,touch_resp_2.leftButton,touch_resp_2.midButton,touch_resp_2.rightButton,touch_resp_2.time,intruct2text,Instructions2.started,Instructions2.stopped,key_resp_3.keys,key_resp_3.rt,key_resp_3.duration,touch_resp_3.x,touch_resp_3.y,touch_resp_3.leftButton,touch_resp_3.midButton,touch_resp_3.rightButton,touch_resp_3.time,Instructions3.started,Instructions3.stopped,key_resp_4.keys,key_resp_4.rt,key_resp_4.duration,touch_resp_4.x,touch_resp_4.y,touch_resp_4.leftButton,touch_resp_4.midButton,touch_resp_4.rightButton,touch_resp_4.time,Instructions4.started,Instructions4.stopped,key_resp_5.keys,key_resp_5.rt,key_resp_5.duration,touch_resp_5.x,touch_resp_5.y,touch_resp_5.leftButton,touch_resp_5.midButton,touch_resp_5.rightButton,touch_resp_5.time,Instructions7.started,Instructions7.stopped,key_resp_8.keys,key_resp_8.rt,key_resp_8.duration,touch_resp_6.x,touch_resp_6.y,touch_resp_6.leftButton,touch_resp_6.midButton,touch_resp_6.rightButton,touch_resp_6.time,obj_desc.started,obj_desc.stopped,key_resp_10.keys,key_resp_10.rt,key_resp_10.duration,touch_resp_8.x,touch_resp_8.y,touch_resp_8.leftButton,touch_resp_8.midButton,touch_resp_8.rightButton,touch_resp_8.time,obj_desc_trials.thisRepN,obj_desc_trials.thisTrialN,obj_desc_trials.thisN,obj_desc_trials.thisIndex,obj_desc_trials.ran,img1,img2,img3,desc1,desc2,desc3,ToBegin.started,ToBegin.stopped,key_resp_9.keys,key_resp_9.rt,key_resp_9.duration,touch_resp_7.x,touch_resp_7.y,touch_resp_7.leftButton,touch_resp_7.midButton,touch_resp_7.rightButton,touch_resp_7.time,startfixation.started,startfixation.stopped,fixation.started,fixation.stopped,fixationcrossStartSeconds,fixationcrossStopSeconds,fixationcrossGlobalTime,imagestim.started,imagestim.stopped,trialduration,stim_response.keys,stim_response.rt,stim_response.duration,touch_stim_response.x,touch_stim_response.y,touch_stim_response.leftButton,touch_stim_response.midButton,touch_stim_response.rightButton,touch_stim_response.time,touch_stim_response.clicked_name,trials.thisRepN,trials.thisTrialN,trials.thisN,trials.thisIndex,trials.ran,eventtype,cue,correct_resp,fixationduration,cueduration,stimwithcue,LeftChoice,MiddleChoice,RightChoice,end.started,end.stopped
0.0002,0.9373,keyboard,1912,948,FALSE,TRUE,TRUE,"Mozilla/5.0 (Windows NT 10.0; Win64; x64) AppleWebKit/537.36 (KHTML, like Gecko) Chrome/146.0.0.0 Safari/537.36 Edg/146.0.0.0",space,0.9196,,[],[],[],[],[],[],sert_test_1,2,2026-04-09_09h30.49.614,sert_artemis_2025.2.3,2025.2.4,Win32,60.24096386,,,,,,,,,,,,,,,,,,,,,,,,,,,,,,,,,,,,,,,,,,,,,,,,,,,,,,,,,,,,,,,,,,,,,,,,,,,,,,,,,,,,,,,,,,,,,,,,,,,,,,,,,,,,,,,,,,,,,,,,,,,,,,,,,,,,,,,,,,,,,,,,,,,
,,,,,,,,,,,,,,,,,,sert_test_1,2,2026-04-09_09h30.49.614,sert_artemis_2025.2.3,2025.2.4,Win32,60.24096386,0.9376,2.2359,0,1,0,[],[],1,[2.273599999994037],[2.273599999994037],,,,,,,,,,,,,,,,,,,,,,,,,,,,,,,,,,,,,,,,,,,,,,,,,,,,,,,,,,,,,,,,,,,,,,,,,,,,,,,,,,,,,,,,,,,,,,,,,,,,,,,,,,,,,,,,,,,,,,,,,,,,,,,,,,,,,,,,,
,,,,,,,,,,,,,,,,,,sert_test_1,2,2026-04-09_09h30.49.614,sert_artemis_2025.2.3,2025.2.4,Win32,60.24096386,,,,,,,,,,,2.2375,3.62,space,0.3496,,[],[],[],[],[],[],"You will see 3 pictures of objects on the screen.

You will choose which picture is DIFFERENT from the others by using your keyboard",3.6202,5.5191,space,0.8658,,[],[],[],[],[],[],"Press 1 if the left picture is different

Press 2 if the middle picture is different

Press 3 if the right picture is different",5.5192,6.9028,space,0.3416,,[],[],[],[],[],[],6.9029,8.2694,space,0.3263,,[],[],[],[],[],[],8.2696,9.4527,space,0.1598,,[],[],[],[],[],[],9.4533,10.7023,space,0.2276,,[],[],[],[],[],[],10.7192,12.5359,space,0.7881,,[],[],[],[],[],[],0,0,0,0,1,images/Inert_Book_Blue_Rect.png,images/Inert_Camera_Blue_Rect.png,images/Inert_Hairbrush_Blue_Rect.png,Book,Camera,Hairbrush,,,,,,,,,,,,,,,,,,,,,,,,,,,,,,,,,,,,,,,,,,,,,,,
,,,,,,,,,,,,,,,,,,sert_test_1,2,2026-04-09_09h30.49.614,sert_artemis_2025.2.3,2025.2.4,Win32,60.24096386,,,,,,,,,,,,,,,,,,,,,,,,,,,,,,,,,,,,,,,,,,,,,,,,,,,,,,,,,,,,,,,,,,,,,,,,,,,,,,,12.5367,13.8025,space,0.2381,,[],[],[],[],[],[],0,1,1,1,1,images/Inert_Hat_Blue_Rect.png,images/Inert_Orange_Blue_Rect.png,images/Inert_Strawberry_Blue_Rect.png,Hat,Orange,Strawberry,,,,,,,,,,,,,,,,,,,,,,,,,,,,,,,,,,,,,,,,,,,,,,,
,,,,,,,,,,,,,,,,,,sert_test_1,2,2026-04-09_09h30.49.614,sert_artemis_2025.2.3,2025.2.4,Win32,60.24096386,,,,,,,,,,,,,,,,,,,,,,,,,,,,,,,,,,,,,,,,,,,,,,,,,,,,,,,,,,,,,,,,,,,,,,,,,,,,,,,13.8036,15.3692,space,0.534,,[],[],[],[],[],[],0,2,2,2,1,images/Lethal_Gun_1_Blue_Rect.png,images/Lethal_Knife_Blue_Rect.png,images/Lethal_Noose_1_Blue_Rect.png,Gun,Knife,Noose,,,,,,,,,,,,,,,,,,,,,,,,,,,,,,,,,,,,,,,,,,,,,,,
,,,,,,,,,,,,,,,,,,sert_test_1,2,2026-04-09_09h30.49.614,sert_artemis_2025.2.3,2025.2.4,Win32,60.24096386,,,,,,,,,,,,,,,,,,,,,,,,,,,,,,,,,,,,,,,,,,,,,,,,,,,,,,,,,,,,,,,,,,,,,,,,,,,,,,,15.3708,16.5859,space,0.1838,,[],[],[],[],[],[],0,3,3,3,1,images/Lethal_Pills_Blue_Rect.png,images/Lethal_Poison_Blue_Rect.png,images/Lethal_Razor_Blue_Rect.png,Pills (overdose),Poison,Razor,,,,,,,,,,,,,,,,,,,,,,,,,,,,,,,,,,,,,,,,,,,,,,,
,,,,,,,,,,,,,,,,,,sert_test_1,2,2026-04-09_09h30.49.614,sert_artemis_2025.2.3,2025.2.4,Win32,60.24096386,,,,,,,,,,,,,,,,,,,,,,,,,,,,,,,,,,,,,,,,,,,,,,,,,,,,,,,,,,,,,,,,,,,,,,,,,,,,,,,16.5874,17.8191,space,0.2013,,[],[],[],[],[],[],0,4,4,4,1,images/Safe_BearHug_Blue_Rect.png,images/Safe_Buoy_Blue_Rect.png,images/Safe_Extinguisher_Blue_Rect.png,Teddy Bear,Buoy,Fire Extinguisher,,,,,,,,,,,,,,,,,,,,,,,,,,,,,,,,,,,,,,,,,,,,,,,
,,,,,,,,,,,,,,,,,,sert_test_1,2,2026-04-09_09h30.49.614,sert_artemis_2025.2.3,2025.2.4,Win32,60.24096386,,,,,,,,,,,,,,,,,,,,,,,,,,,,,,,,,,,,,,,,,,,,,,,,,,,,,,,,,,,,,,,,,,,,,,,,,,,,,,,17.8211,19.0024,space,0.1541,,[],[],[],[],[],[],0,5,5,5,1,images/Safe_Goggles_Blue_Rect.png,images/Safe_LifeVest_Blue_Rect.png,images/Safe_SeatBelt_Blue_Rect.png,Safety Goggles,Life Vest,Seat Belt,,,,,,,,,,,,,,,,,,,,,,,,,,,,,,,,,,,,,,,,,,,,,,,
,,,,,,,,,,,,,,,,,,sert_test_1,2,2026-04-09_09h30.49.614,sert_artemis_2025.2.3,2025.2.4,Win32,60.24096386,,,,,,,,,,,,,,,,,,,,,,,,,,,,,,,,,,,,,,,,,,,,,,,,,,,,,,,,,,,,,,,,,,,,,,,,,,,,,,,,,,,,,,,,,,,,,,,,,,,,,19.0026,19.9192,space,0.9045,,[],[],[],[],[],[],,,,,,,,,,,,,,,,,,,,,,,,,,,,,,,,,,,,
,,,,,,,,,,,,,,,,,,sert_test_1,2,2026-04-09_09h30.49.614,sert_artemis_2025.2.3,2025.2.4,Win32,60.24096386,,,,,,,,,,,,,,,,,,,,,,,,,,,,,,,,,,,,,,,,,,,,,,,,,,,,,,,,,,,,,,,,,,,,,,,,,,,,,,,,,,,,,,,,,,,,,,,,,,,,,,,,,,,,,,,,19.9193,22.9192,,,,,,,,,,,,,,,,,,,,,,,,,,,,,,,,,,
,,,,,,,,,,,,,,,,,,sert_test_1,2,2026-04-09_09h30.49.614,sert_artemis_2025.2.3,2025.2.4,Win32,60.24096386,,,,,,,,,,,,,,,,,,,,,,,,,,,,,,,,,,,,,,,,,,,,,,,,,,,,,,,,,,,,,,,,,,,,,,,,,,,,,,,,,,,,,,,,,,,,,,,,,,,,,,,,,,,,,,,,,,22.9341,23.2855,1.00E-04,0.3512,23.2855,23.2862,25.3358,2.05,"[""1""]",[0.7746999999880799],[null],[],[],[],[],[],[],[],0,0,0,0,1,objects,color,1,0.35,0.15,1.9,images/Safe_BearHug_Orange_Oval.png,images/Safe_Goggles_Blue_Rect.png,images/Lethal_Pills_Blue_Oval.png,,
,,,,,,,,,,,,,,,,,,sert_test_1,2,2026-04-09_09h30.49.614,sert_artemis_2025.2.3,2025.2.4,Win32,60.24096386,,,,,,,,,,,,,,,,,,,,,,,,,,,,,,,,,,,,,,,,,,,,,,,,,,,,,,,,,,,,,,,,,,,,,,,,,,,,,,,,,,,,,,,,,,,,,,,,,,,,,,,,,,,,,,,,,,25.3369,25.6854,0.0005,0.3489,25.6854,25.6865,27.7356,2.05,"[""2""]",[1.7521000000238445],[null],[],[],[],[],[],[],[],0,1,1,1,1,objects,shape,1,0.35,0.15,1.9,images/Lethal_Noose_1_Blue_Oval.png,images/Lethal_Razor_Orange_Rhom.png,images/Safe_SeatBelt_Blue_Rhom.png,,
,,,,,,,,,,,,,,,,,,sert_test_1,2,2026-04-09_09h30.49.614,sert_artemis_2025.2.3,2025.2.4,Win32,60.24096386,,,,,,,,,,,,,,,,,,,,,,,,,,,,,,,,,,,,,,,,,,,,,,,,,,,,,,,,,,,,,,,,,,,,,,,,,,,,,,,,,,,,,,,,,,,,,,,,,,,,,,,,,,,,,,,,,,27.7371,28.0856,0.0012,0.3494,28.0856,28.0865,30.1354,2.05,"[""3""]",[0.6447000000178775],[null],[],[],[],[],[],[],[],0,2,2,2,1,objects,lethality,2,0.35,0.15,1.9,images/Lethal_Gun_1_Orange_Rhom.png,images/Safe_Extinguisher_Orange_Oval.png,images/Lethal_Knife_Blue_Oval.png,,
,,,,,,,,,,,,,,,,,,sert_test_1,2,2026-04-09_09h30.49.614,sert_artemis_2025.2.3,2025.2.4,Win32,60.24096386,,,,,,,,,,,,,,,,,,,,,,,,,,,,,,,,,,,,,,,,,,,,,,,,,,,,,,,,,,,,,,,,,,,,,,,,,,,,,,,,,,,,,,,,,,,,,,,,,,,,,,,,,,,,,,,,,,30.1366,30.5854,0.0007,0.4495,30.5854,30.5872,32.6354,2.05,"[""1""]",[0.9437999999821187],[null],[],[],[],[],[],[],[],0,3,3,3,1,objects,color,3,0.45,0.15,1.9,images/Safe_Goggles_Orange_Rect.png,images/Lethal_Poison_Orange_Oval.png,images/Safe_LifeVest_Blue_Oval.png,,
,,,,,,,,,,,,,,,,,,sert_test_1,2,2026-04-09_09h30.49.614,sert_artemis_2025.2.3,2025.2.4,Win32,60.24096386,,,,,,,,,,,,,,,,,,,,,,,,,,,,,,,,,,,,,,,,,,,,,,,,,,,,,,,,,,,,,,,,,,,,,,,,,,,,,,,,,,,,,,,,,,,,,,,,,,,,,,,,,,,,,,,,,,32.6362,32.9853,0.0005,0.3494,32.9853,32.986,35.0354,2.05,,,,[],[],[],[],[],[],[],0,4,4,4,1,objects,shape,2,0.35,0.15,1.9,images/Inert_Orange_Orange_Rhom.png,images/Inert_Camera_Blue_Rect.png,images/Lethal_Pills_Blue_Rhom.png,,
,,,,,,,,,,,,,,,,,,sert_test_1,2,2026-04-09_09h30.49.614,sert_artemis_2025.2.3,2025.2.4,Win32,60.24096386,,,,,,,,,,,,,,,,,,,,,,,,,,,,,,,,,,,,,,,,,,,,,,,,,,,,,,,,,,,,,,,,,,,,,,,,,,,,,,,,,,,,,,,,,,,,,,,,,,,,,,,,,,,,,,,,,,35.0362,35.3854,0.0005,0.3495,35.3854,35.3865,37.4354,2.05,,,,[],[],[],[],[],[],[],0,5,5,5,1,objects,lethality,2,0.35,0.15,1.9,images/Lethal_Noose_1_Blue_Rhom.png,images/Inert_Hat_Orange_Rhom.png,images/Lethal_Poison_Orange_Oval.png,,
,,,,,,,,,,,,,,,,,,sert_test_1,2,2026-04-09_09h30.49.614,sert_artemis_2025.2.3,2025.2.4,Win32,60.24096386,,,,,,,,,,,,,,,,,,,,,,,,,,,,,,,,,,,,,,,,,,,,,,,,,,,,,,,,,,,,,,,,,,,,,,,,,,,,,,,,,,,,,,,,,,,,,,,,,,,,,,,,,,,,,,,,,,37.4358,37.7852,0,0.3493,37.7852,37.7861,39.8352,2.05,,,,[],[],[],[],[],[],[],0,6,6,6,1,objects,lethality,1,0.35,0.15,1.9,images/Lethal_Gun_1_Blue_Rhom.png,images/Inert_Hairbrush_Orange_Rhom.png,images/Inert_Strawberry_Blue_Rect.png,,
,,,,,,,,,,,,,,,,,,sert_test_1,2,2026-04-09_09h30.49.614,sert_artemis_2025.2.3,2025.2.4,Win32,60.24096386,,,,,,,,,,,,,,,,,,,,,,,,,,,,,,,,,,,,,,,,,,,,,,,,,,,,,,,,,,,,,,,,,,,,,,,,,,,,,,,,,,,,,,,,,,,,,,,,,,,,,,,,,,,,,,,,,,39.836,40.1854,0.0004,0.3497,40.1854,40.1864,42.2354,2.05,,,,[],[],[],[],[],[],[],0,7,7,7,1,objects,color,2,0.35,0.15,1.9,images/Inert_Hat_Orange_Oval.png,images/Safe_Buoy_Blue_Oval.png,images/Safe_SeatBelt_Orange_Rect.png,,
,,,,,,,,,,,,,,,,,,sert_test_1,2,2026-04-09_09h30.49.614,sert_artemis_2025.2.3,2025.2.4,Win32,60.24096386,,,,,,,,,,,,,,,,,,,,,,,,,,,,,,,,,,,,,,,,,,,,,,,,,,,,,,,,,,,,,,,,,,,,,,,,,,,,,,,,,,,,,,,,,,,,,,,,,,,,,,,,,,,,,,,,,,42.236,42.5853,0,0.3493,42.5853,42.586,44.6353,2.05,,,,[],[],[],[],[],[],[],0,8,8,8,1,objects,color,3,0.35,0.15,1.9,images/Safe_BearHug_Blue_Rect.png,images/Lethal_Razor_Blue_Rhom.png,images/Safe_Buoy_Orange_Rhom.png,,
,,,,,,,,,,,,,,,,,,sert_test_1,2,2026-04-09_09h30.49.614,sert_artemis_2025.2.3,2025.2.4,Win32,60.24096386,,,,,,,,,,,,,,,,,,,,,,,,,,,,,,,,,,,,,,,,,,,,,,,,,,,,,,,,,,,,,,,,,,,,,,,,,,,,,,,,,,,,,,,,,,,,,,,,,,,,,,,,,,,,,,,,,,44.6367,45.1853,0.0011,0.5496,45.1853,45.1865,47.2353,2.05,,,,[],[],[],[],[],[],[],0,9,9,9,1,objects,shape,3,0.55,0.15,1.9,images/Lethal_Poison_Orange_Rect.png,images/Safe_Extinguisher_Blue_Rect.png,images/Safe_SeatBelt_Orange_Rhom.png,,
,,,,,,,,,,,,,,,,,,sert_test_1,2,2026-04-09_09h30.49.614,sert_artemis_2025.2.3,2025.2.4,Win32,60.24096386,,,,,,,,,,,,,,,,,,,,,,,,,,,,,,,,,,,,,,,,,,,,,,,,,,,,,,,,,,,,,,,,,,,,,,,,,,,,,,,,,,,,,,,,,,,,,,,,,,,,,,,,,,,,,,,,,,47.2365,47.7851,0.0007,0.5492,47.7851,47.7858,49.8358,2.05,,,,[],[],[],[],[],[],[],0,10,10,10,1,objects,color,1,0.55,0.15,1.9,images/Safe_Buoy_Blue_Rhom.png,images/Safe_BearHug_Orange_Oval.png,images/Lethal_Gun_1_Orange_Rhom.png,,
,,,,,,,,,,,,,,,,,,sert_test_1,2,2026-04-09_09h30.49.614,sert_artemis_2025.2.3,2025.2.4,Win32,60.24096386,,,,,,,,,,,,,,,,,,,,,,,,,,,,,,,,,,,,,,,,,,,,,,,,,,,,,,,,,,,,,,,,,,,,,,,,,,,,,,,,,,,,,,,,,,,,,,,,,,,,,,,,,,,,,,,,,,49.8361,50.3853,1.00E-04,0.5492,50.3853,50.3863,52.4351,2.05,,,,[],[],[],[],[],[],[],0,11,11,11,1,objects,color,2,0.55,0.15,1.9,images/Lethal_Noose_1_Orange_Oval.png,images/Safe_Buoy_Blue_Oval.png,images/Safe_LifeVest_Orange_Rect.png,,
,,,,,,,,,,,,,,,,,,sert_test_1,2,2026-04-09_09h30.49.614,sert_artemis_2025.2.3,2025.2.4,Win32,60.24096386,,,,,,,,,,,,,,,,,,,,,,,,,,,,,,,,,,,,,,,,,,,,,,,,,,,,,,,,,,,,,,,,,,,,,,,,,,,,,,,,,,,,,,,,,,,,,,,,,,,,,,,,,,,,,,,,,,52.4354,52.8853,0,0.4498,52.8853,52.8864,54.9354,2.05,,,,[],[],[],[],[],[],[],0,12,12,12,1,objects,color,2,0.45,0.15,1.9,images/Inert_Hairbrush_Orange_Rhom.png,images/Lethal_Razor_Blue_Rhom.png,images/Lethal_Knife_Orange_Rect.png,,
,,,,,,,,,,,,,,,,,,sert_test_1,2,2026-04-09_09h30.49.614,sert_artemis_2025.2.3,2025.2.4,Win32,60.24096386,,,,,,,,,,,,,,,,,,,,,,,,,,,,,,,,,,,,,,,,,,,,,,,,,,,,,,,,,,,,,,,,,,,,,,,,,,,,,,,,,,,,,,,,,,,,,,,,,,,,,,,,,,,,,,,,,,54.9358,55.2852,0,0.3493,55.2852,55.2857,57.3352,2.05,,,,[],[],[],[],[],[],[],0,13,13,13,1,objects,color,2,0.35,0.15,1.9,images/Safe_LifeVest_Orange_Rect.png,images/Safe_Extinguisher_Blue_Oval.png,images/Lethal_Noose_1_Orange_Oval.png,,
,,,,,,,,,,,,,,,,,,sert_test_1,2,2026-04-09_09h30.49.614,sert_artemis_2025.2.3,2025.2.4,Win32,60.24096386,,,,,,,,,,,,,,,,,,,,,,,,,,,,,,,,,,,,,,,,,,,,,,,,,,,,,,,,,,,,,,,,,,,,,,,,,,,,,,,,,,,,,,,,,,,,,,,,,,,,,,,,,,,,,,,,,,57.3355,57.8853,0,0.5497,57.8853,57.8861,59.9353,2.05,,,,[],[],[],[],[],[],[],0,14,14,14,1,objects,color,1,0.55,0.15,1.9,images/Lethal_Poison_Blue_Oval.png,images/Lethal_Gun_1_Orange_Rhom.png,images/Inert_Strawberry_Orange_Oval.png,,
,,,,,,,,,,,,,,,,,,sert_test_1,2,2026-04-09_09h30.49.614,sert_artemis_2025.2.3,2025.2.4,Win32,60.24096386,,,,,,,,,,,,,,,,,,,,,,,,,,,,,,,,,,,,,,,,,,,,,,,,,,,,,,,,,,,,,,,,,,,,,,,,,,,,,,,,,,,,,,,,,,,,,,,,,,,,,,,,,,,,,,,,,,59.9354,60.2856,0,0.35,60.2856,60.286,62.3352,2.05,,,,[],[],[],[],[],[],[],0,15,15,15,1,objects,color,2,0.35,0.15,1.9,images/Lethal_Knife_Blue_Rect.png,images/Lethal_Pills_Orange_Rhom.png,images/Safe_Buoy_Blue_Rhom.png,,
,,,,,,,,,,,,,,,,,,sert_test_1,2,2026-04-09_09h30.49.614,sert_artemis_2025.2.3,2025.2.4,Win32,60.24096386,,,,,,,,,,,,,,,,,,,,,,,,,,,,,,,,,,,,,,,,,,,,,,,,,,,,,,,,,,,,,,,,,,,,,,,,,,,,,,,,,,,,,,,,,,,,,,,,,,,,,,,,,,,,,,,,,,62.3356,62.8852,0,0.5495,62.8852,62.8857,64.935,2.05,,,,[],[],[],[],[],[],[],0,16,16,16,1,objects,color,3,0.55,0.15,1.9,images/Inert_Orange_Orange_Rect.png,images/Lethal_Knife_Orange_Oval.png,images/Inert_Book_Blue_Oval.png,,
,,,,,,,,,,,,,,,,,,sert_test_1,2,2026-04-09_09h30.49.614,sert_artemis_2025.2.3,2025.2.4,Win32,60.24096386,,,,,,,,,,,,,,,,,,,,,,,,,,,,,,,,,,,,,,,,,,,,,,,,,,,,,,,,,,,,,,,,,,,,,,,,,,,,,,,,,,,,,,,,,,,,,,,,,,,,,,,,,,,,,,,,,,64.9355,65.3851,0,0.4494,65.3851,65.3857,67.4353,2.05,,,,[],[],[],[],[],[],[],0,17,17,17,1,objects,color,1,0.45,0.15,1.9,images/Lethal_Pills_Blue_Rhom.png,images/Inert_Book_Orange_Rhom.png,images/Lethal_Gun_1_Orange_Rect.png,,
,,,,,,,,,,,,,,,,,,sert_test_1,2,2026-04-09_09h30.49.614,sert_artemis_2025.2.3,2025.2.4,Win32,60.24096386,,,,,,,,,,,,,,,,,,,,,,,,,,,,,,,,,,,,,,,,,,,,,,,,,,,,,,,,,,,,,,,,,,,,,,,,,,,,,,,,,,,,,,,,,,,,,,,,,,,,,,,,,,,,,,,,,,67.4358,67.7852,0,0.3492,67.7852,67.786,69.8355,2.05,,,,[],[],[],[],[],[],[],0,18,18,18,1,objects,color,2,0.35,0.15,1.9,images/Lethal_Noose_1_Blue_Oval.png,images/Safe_LifeVest_Orange_Oval.png,images/Safe_Goggles_Blue_Rect.png,,
,,,,,,,,,,,,,,,,,,sert_test_1,2,2026-04-09_09h30.49.614,sert_artemis_2025.2.3,2025.2.4,Win32,60.24096386,,,,,,,,,,,,,,,,,,,,,,,,,,,,,,,,,,,,,,,,,,,,,,,,,,,,,,,,,,,,,,,,,,,,,,,,,,,,,,,,,,,,,,,,,,,,,,,,,,,,,,,,,,,,,,,,,,69.8358,70.2852,0,0.4492,70.2852,70.2859,72.335,2.05,,,,[],[],[],[],[],[],[],0,19,19,19,1,objects,color,3,0.45,0.15,1.9,images/Safe_Buoy_Blue_Rect.png,images/Lethal_Razor_Blue_Oval.png,images/Safe_SeatBelt_Orange_Oval.png,,
,,,,,,,,,,,,,,,,,,sert_test_1,2,2026-04-09_09h30.49.614,sert_artemis_2025.2.3,2025.2.4,Win32,60.24096386,,,,,,,,,,,,,,,,,,,,,,,,,,,,,,,,,,,,,,,,,,,,,,,,,,,,,,,,,,,,,,,,,,,,,,,,,,,,,,,,,,,,,,,,,,,,,,,,,,,,,,,,,,,,,,,,,,72.3367,72.8853,0.0012,0.5497,72.8854,72.8872,74.9351,2.05,,,,[],[],[],[],[],[],[],0,20,20,20,1,objects,shape,3,0.55,0.15,1.9,images/Lethal_Gun_1_Blue_Rect.png,images/Safe_BearHug_Orange_Rect.png,images/Safe_LifeVest_Blue_Rhom.png,,
,,,,,,,,,,,,,,,,,,sert_test_1,2,2026-04-09_09h30.49.614,sert_artemis_2025.2.3,2025.2.4,Win32,60.24096386,,,,,,,,,,,,,,,,,,,,,,,,,,,,,,,,,,,,,,,,,,,,,,,,,,,,,,,,,,,,,,,,,,,,,,,,,,,,,,,,,,,,,,,,,,,,,,,,,,,,,,,,,,,,,,,,,,74.9356,75.2852,0.0004,0.3498,75.2852,75.287,77.335,2.05,,,,[],[],[],[],[],[],[],0,21,21,21,1,objects,color,3,0.35,0.15,1.9,images/Lethal_Poison_Blue_Oval.png,images/Inert_Book_Blue_Rhom.png,images/Inert_Strawberry_Orange_Oval.png,,
,,,,,,,,,,,,,,,,,,sert_test_1,2,2026-04-09_09h30.49.614,sert_artemis_2025.2.3,2025.2.4,Win32,60.24096386,,,,,,,,,,,,,,,,,,,,,,,,,,,,,,,,,,,,,,,,,,,,,,,,,,,,,,,,,,,,,,,,,,,,,,,,,,,,,,,,,,,,,,,,,,,,,,,,,,,,,,,,,,,,,,,,,,77.3355,77.6848,0,0.3493,77.6848,77.6855,79.735,2.05,,,,[],[],[],[],[],[],[],0,22,22,22,1,objects,color,3,0.35,0.15,1.9,images/Lethal_Noose_1_Blue_Oval.png,images/Safe_Buoy_Blue_Rhom.png,images/Safe_Goggles_Orange_Oval.png,,
,,,,,,,,,,,,,,,,,,sert_test_1,2,2026-04-09_09h30.49.614,sert_artemis_2025.2.3,2025.2.4,Win32,60.24096386,,,,,,,,,,,,,,,,,,,,,,,,,,,,,,,,,,,,,,,,,,,,,,,,,,,,,,,,,,,,,,,,,,,,,,,,,,,,,,,,,,,,,,,,,,,,,,,,,,,,,,,,,,,,,,,,,,79.7359,80.2853,0.0007,0.5497,80.2853,80.2861,82.3353,2.05,,,,"[0.5527777777777778,0.7268518518518519]","[0.3074074074074074,0.21666666666666667]","[1,1]","[0,0]","[0,0]","[0.5653000000119164,1.2147000000178707]","[null,null]",0,23,23,23,1,objects,lethality,2,0.55,0.15,1.9,images/Safe_Buoy_Orange_Oval.png,images/Lethal_Razor_Blue_Oval.png,images/Safe_Extinguisher_Blue_Rhom.png,,
,,,,,,,,,,,,,,,,,,sert_test_1,2,2026-04-09_09h30.49.614,sert_artemis_2025.2.3,2025.2.4,Win32,60.24096386,,,,,,,,,,,,,,,,,,,,,,,,,,,,,,,,,,,,,,,,,,,,,,,,,,,,,,,,,,,,,,,,,,,,,,,,,,,,,,,,,,,,,,,,,,,,,,,,,,,,,,,,,,,,,,,,,,82.3361,82.8851,0.0005,0.5494,82.8851,82.8861,84.9352,2.05,,,,[],[],[],[],[],[],[],0,24,24,24,1,objects,color,3,0.55,0.15,1.9,images/Lethal_Knife_Orange_Rect.png,images/Inert_Orange_Orange_Rhom.png,images/Inert_Camera_Blue_Rect.png,,
,,,,,,,,,,,,,,,,,,sert_test_1,2,2026-04-09_09h30.49.614,sert_artemis_2025.2.3,2025.2.4,Win32,60.24096386,,,,,,,,,,,,,,,,,,,,,,,,,,,,,,,,,,,,,,,,,,,,,,,,,,,,,,,,,,,,,,,,,,,,,,,,,,,,,,,,,,,,,,,,,,,,,,,,,,,,,,,,,,,,,,,,,,84.9355,85.4851,0,0.5495,85.4851,85.4858,87.5349,2.05,,,,[],[],[],[],[],[],[],0,25,25,25,1,objects,color,2,0.55,0.15,1.9,images/Lethal_Gun_1_Blue_Rect.png,images/Safe_SeatBelt_Orange_Rect.png,images/Safe_Extinguisher_Blue_Rhom.png,,
,,,,,,,,,,,,,,,,,,sert_test_1,2,2026-04-09_09h30.49.614,sert_artemis_2025.2.3,2025.2.4,Win32,60.24096386,,,,,,,,,,,,,,,,,,,,,,,,,,,,,,,,,,,,,,,,,,,,,,,,,,,,,,,,,,,,,,,,,,,,,,,,,,,,,,,,,,,,,,,,,,,,,,,,,,,,,,,,,,,,,,,,,,87.5361,87.8847,0.0009,0.3494,87.8847,87.8859,89.9347,2.05,,,,[],[],[],[],[],[],[],0,26,26,26,1,objects,lethality,1,0.35,0.15,1.9,images/Inert_Hat_Orange_Oval.png,images/Lethal_Razor_Orange_Rect.png,images/Lethal_Knife_Blue_Oval.png,,
,,,,,,,,,,,,,,,,,,sert_test_1,2,2026-04-09_09h30.49.614,sert_artemis_2025.2.3,2025.2.4,Win32,60.24096386,,,,,,,,,,,,,,,,,,,,,,,,,,,,,,,,,,,,,,,,,,,,,,,,,,,,,,,,,,,,,,,,,,,,,,,,,,,,,,,,,,,,,,,,,,,,,,,,,,,,,,,,,,,,,,,,,,89.9349,90.2849,0,0.3499,90.2849,90.2862,92.3349,2.05,,,,[],[],[],[],[],[],[],0,27,27,27,1,objects,lethality,3,0.35,0.15,1.9,images/Inert_Book_Blue_Rect.png,images/Inert_Hairbrush_Orange_Rhom.png,images/Lethal_Noose_1_Orange_Rect.png,,
,,,,,,,,,,,,,,,,,,sert_test_1,2,2026-04-09_09h30.49.614,sert_artemis_2025.2.3,2025.2.4,Win32,60.24096386,,,,,,,,,,,,,,,,,,,,,,,,,,,,,,,,,,,,,,,,,,,,,,,,,,,,,,,,,,,,,,,,,,,,,,,,,,,,,,,,,,,,,,,,,,,,,,,,,,,,,,,,,,,,,,,,,,92.3356,92.8847,0.0004,0.5495,92.8847,92.8855,94.9346,2.05,,,,[],[],[],[],[],[],[],0,28,28,28,1,objects,shape,1,0.55,0.15,1.9,images/Inert_Hairbrush_Blue_Rhom.png,images/Lethal_Gun_1_Blue_Oval.png,images/Inert_Hat_Orange_Oval.png,,
,,,,,,,,,,,,,,,,,,sert_test_1,2,2026-04-09_09h30.49.614,sert_artemis_2025.2.3,2025.2.4,Win32,60.24096386,,,,,,,,,,,,,,,,,,,,,,,,,,,,,,,,,,,,,,,,,,,,,,,,,,,,,,,,,,,,,,,,,,,,,,,,,,,,,,,,,,,,,,,,,,,,,,,,,,,,,,,,,,,,,,,,,,94.935,95.2846,0,0.3495,95.2846,95.2853,97.3351,2.05,,,,[],[],[],[],[],[],[],0,29,29,29,1,objects,shape,3,0.35,0.15,1.9,images/Lethal_Pills_Blue_Rect.png,images/Inert_Hairbrush_Orange_Rect.png,images/Inert_Orange_Blue_Rhom.png,,
,,,,,,,,,,,,,,,,,,sert_test_1,2,2026-04-09_09h30.49.614,sert_artemis_2025.2.3,2025.2.4,Win32,60.24096386,,,,,,,,,,,,,,,,,,,,,,,,,,,,,,,,,,,,,,,,,,,,,,,,,,,,,,,,,,,,,,,,,,,,,,,,,,,,,,,,,,,,,,,,,,,,,,,,,,,,,,,,,,,,,,,,,,97.3361,97.8849,0.0005,0.5492,97.8849,97.8866,99.9352,2.05,,,,[],[],[],[],[],[],[],0,30,30,30,1,objects,lethality,2,0.55,0.15,1.9,images/Lethal_Razor_Blue_Rect.png,images/Safe_BearHug_Blue_Rhom.png,images/Lethal_Gun_1_Orange_Rhom.png,,
,,,,,,,,,,,,,,,,,,sert_test_1,2,2026-04-09_09h30.49.614,sert_artemis_2025.2.3,2025.2.4,Win32,60.24096386,,,,,,,,,,,,,,,,,,,,,,,,,,,,,,,,,,,,,,,,,,,,,,,,,,,,,,,,,,,,,,,,,,,,,,,,,,,,,,,,,,,,,,,,,,,,,,,,,,,,,,,,,,,,,,,,,,99.9355,100.4848,0,0.5491,100.4848,100.4854,102.5345,2.05,,,,[],[],[],[],[],[],[],0,31,31,31,1,objects,lethality,2,0.55,0.15,1.9,images/Lethal_Poison_Blue_Oval.png,images/Safe_LifeVest_Orange_Oval.png,images/Lethal_Razor_Orange_Rect.png,,
,,,,,,,,,,,,,,,,,,sert_test_1,2,2026-04-09_09h30.49.614,sert_artemis_2025.2.3,2025.2.4,Win32,60.24096386,,,,,,,,,,,,,,,,,,,,,,,,,,,,,,,,,,,,,,,,,,,,,,,,,,,,,,,,,,,,,,,,,,,,,,,,,,,,,,,,,,,,,,,,,,,,,,,,,,,,,,,,,,,,,,,,,,102.5348,102.8845,0,0.3497,102.8845,102.8851,104.9347,2.05,,,,[],[],[],[],[],[],[],0,32,32,32,1,objects,lethality,2,0.35,0.15,1.9,images/Lethal_Gun_1_Orange_Rhom.png,images/Safe_Extinguisher_Blue_Rhom.png,images/Lethal_Knife_Blue_Rect.png,,
,,,,,,,,,,,,,,,,,,sert_test_1,2,2026-04-09_09h30.49.614,sert_artemis_2025.2.3,2025.2.4,Win32,60.24096386,,,,,,,,,,,,,,,,,,,,,,,,,,,,,,,,,,,,,,,,,,,,,,,,,,,,,,,,,,,,,,,,,,,,,,,,,,,,,,,,,,,,,,,,,,,,,,,,,,,,,,,,,,,,,,,,,,104.9354,105.4847,1.00E-04,0.5491,105.4847,105.4856,107.5345,2.05,,,,[],[],[],[],[],[],[],0,33,33,33,1,objects,lethality,1,0.55,0.15,1.9,images/Safe_LifeVest_Blue_Oval.png,images/Lethal_Pills_Orange_Oval.png,images/Lethal_Gun_1_Blue_Rect.png,,
,,,,,,,,,,,,,,,,,,sert_test_1,2,2026-04-09_09h30.49.614,sert_artemis_2025.2.3,2025.2.4,Win32,60.24096386,,,,,,,,,,,,,,,,,,,,,,,,,,,,,,,,,,,,,,,,,,,,,,,,,,,,,,,,,,,,,,,,,,,,,,,,,,,,,,,,,,,,,,,,,,,,,,,,,,,,,,,,,,,,,,,,,,107.5347,107.9845,0,0.4498,107.9845,107.9847,110.0345,2.05,,,,[],[],[],[],[],[],[],0,34,34,34,1,objects,lethality,1,0.45,0.15,1.9,images/Safe_BearHug_Orange_Rect.png,images/Lethal_Noose_1_Orange_Oval.png,images/Lethal_Poison_Blue_Rect.png,,
,,,,,,,,,,,,,,,,,,sert_test_1,2,2026-04-09_09h30.49.614,sert_artemis_2025.2.3,2025.2.4,Win32,60.24096386,,,,,,,,,,,,,,,,,,,,,,,,,,,,,,,,,,,,,,,,,,,,,,,,,,,,,,,,,,,,,,,,,,,,,,,,,,,,,,,,,,,,,,,,,,,,,,,,,,,,,,,,,,,,,,,,,,110.0349,110.3846,0,0.3496,110.3846,110.385,112.4353,2.05,,,,[],[],[],[],[],[],[],0,35,35,35,1,objects,lethality,3,0.35,0.15,1.9,images/Lethal_Pills_Blue_Rect.png,images/Lethal_Knife_Orange_Rhom.png,images/Safe_Goggles_Blue_Rhom.png,,
,,,,,,,,,,,,,,,,,,sert_test_1,2,2026-04-09_09h30.49.614,sert_artemis_2025.2.3,2025.2.4,Win32,60.24096386,,,,,,,,,,,,,,,,,,,,,,,,,,,,,,,,,,,,,,,,,,,,,,,,,,,,,,,,,,,,,,,,,,,,,,,,,,,,,,,,,,,,,,,,,,,,,,,,,,,,,,,,,,,,,,,,,,112.4357,112.8846,0,0.4488,112.8846,112.8853,114.9345,2.05,,,,[],[],[],[],[],[],[],0,36,36,36,1,objects,lethality,1,0.45,0.15,1.9,images/Safe_BearHug_Blue_Oval.png,images/Lethal_Poison_Blue_Rect.png,images/Lethal_Noose_1_Orange_Oval.png,,
,,,,,,,,,,,,,,,,,,sert_test_1,2,2026-04-09_09h30.49.614,sert_artemis_2025.2.3,2025.2.4,Win32,60.24096386,,,,,,,,,,,,,,,,,,,,,,,,,,,,,,,,,,,,,,,,,,,,,,,,,,,,,,,,,,,,,,,,,,,,,,,,,,,,,,,,,,,,,,,,,,,,,,,,,,,,,,,,,,,,,,,,,,114.9349,115.2846,0,0.3496,115.2846,115.2851,117.3349,2.05,,,,[],[],[],[],[],[],[],0,37,37,37,1,objects,lethality,1,0.35,0.15,1.9,images/Safe_LifeVest_Orange_Rect.png,images/Lethal_Knife_Orange_Oval.png,images/Lethal_Pills_Blue_Rect.png,,
,,,,,,,,,,,,,,,,,,sert_test_1,2,2026-04-09_09h30.49.614,sert_artemis_2025.2.3,2025.2.4,Win32,60.24096386,,,,,,,,,,,,,,,,,,,,,,,,,,,,,,,,,,,,,,,,,,,,,,,,,,,,,,,,,,,,,,,,,,,,,,,,,,,,,,,,,,,,,,,,,,,,,,,,,,,,,,,,,,,,,,,,,,117.3352,117.6844,0,0.3492,117.6845,117.6856,119.7345,2.05,,,,[],[],[],[],[],[],[],0,38,38,38,1,objects,lethality,1,0.35,0.15,1.9,images/Safe_Extinguisher_Orange_Rhom.png,images/Lethal_Gun_1_Orange_Rect.png,images/Lethal_Razor_Blue_Rhom.png,,
,,,,,,,,,,,,,,,,,,sert_test_1,2,2026-04-09_09h30.49.614,sert_artemis_2025.2.3,2025.2.4,Win32,60.24096386,,,,,,,,,,,,,,,,,,,,,,,,,,,,,,,,,,,,,,,,,,,,,,,,,,,,,,,,,,,,,,,,,,,,,,,,,,,,,,,,,,,,,,,,,,,,,,,,,,,,,,,,,,,,,,,,,,119.735,120.0843,0,0.3492,120.0843,120.0846,122.1344,2.05,,,,[],[],[],[],[],[],[],0,39,39,39,1,objects,lethality,2,0.35,0.15,1.9,images/Lethal_Poison_Blue_Oval.png,images/Safe_SeatBelt_Orange_Oval.png,images/Lethal_Knife_Orange_Rect.png,,
,,,,,,,,,,,,,,,,,,sert_test_1,2,2026-04-09_09h30.49.614,sert_artemis_2025.2.3,2025.2.4,Win32,60.24096386,,,,,,,,,,,,,,,,,,,,,,,,,,,,,,,,,,,,,,,,,,,,,,,,,,,,,,,,,,,,,,,,,,,,,,,,,,,,,,,,,,,,,,,,,,,,,,,,,,,,,,,,,,,,,,,,,,122.135,122.5843,0.0005,0.4496,122.5843,122.5852,124.6345,2.05,,,,[],[],[],[],[],[],[],0,40,40,40,1,objects,shape,3,0.45,0.15,1.9,images/Inert_Orange_Orange_Rect.png,images/Lethal_Poison_Blue_Rect.png,images/Inert_Hairbrush_Blue_Oval.png,,
,,,,,,,,,,,,,,,,,,sert_test_1,2,2026-04-09_09h30.49.614,sert_artemis_2025.2.3,2025.2.4,Win32,60.24096386,,,,,,,,,,,,,,,,,,,,,,,,,,,,,,,,,,,,,,,,,,,,,,,,,,,,,,,,,,,,,,,,,,,,,,,,,,,,,,,,,,,,,,,,,,,,,,,,,,,,,,,,,,,,,,,,,,124.6349,125.1844,0,0.5494,125.1844,125.1856,127.2346,2.05,,,,[],[],[],[],[],[],[],0,41,41,41,1,objects,shape,3,0.55,0.15,1.9,images/Lethal_Poison_Blue_Rhom.png,images/Safe_Extinguisher_Orange_Rhom.png,images/Lethal_Knife_Orange_Rect.png,,
,,,,,,,,,,,,,,,,,,sert_test_1,2,2026-04-09_09h30.49.614,sert_artemis_2025.2.3,2025.2.4,Win32,60.24096386,,,,,,,,,,,,,,,,,,,,,,,,,,,,,,,,,,,,,,,,,,,,,,,,,,,,,,,,,,,,,,,,,,,,,,,,,,,,,,,,,,,,,,,,,,,,,,,,,,,,,,,,,,,,,,,,,,127.2358,127.7843,0.0008,0.5492,127.7843,127.7853,129.8343,2.05,,,,[],[],[],[],[],[],[],0,42,42,42,1,objects,lethality,2,0.55,0.15,1.9,images/Inert_Book_Blue_Oval.png,images/Lethal_Gun_1_Orange_Oval.png,images/Inert_Hat_Orange_Rhom.png,,
,,,,,,,,,,,,,,,,,,sert_test_1,2,2026-04-09_09h30.49.614,sert_artemis_2025.2.3,2025.2.4,Win32,60.24096386,,,,,,,,,,,,,,,,,,,,,,,,,,,,,,,,,,,,,,,,,,,,,,,,,,,,,,,,,,,,,,,,,,,,,,,,,,,,,,,,,,,,,,,,,,,,,,,,,,,,,,,,,,,,,,,,,,129.8358,130.1844,0.0012,0.3495,130.1844,130.1857,132.2343,2.05,,,,[],[],[],[],[],[],[],0,43,43,43,1,objects,color,1,0.35,0.15,1.9,images/Lethal_Gun_1_Orange_Rect.png,images/Lethal_Poison_Blue_Oval.png,images/Inert_Camera_Blue_Rect.png,,
,,,,,,,,,,,,,,,,,,sert_test_1,2,2026-04-09_09h30.49.614,sert_artemis_2025.2.3,2025.2.4,Win32,60.24096386,,,,,,,,,,,,,,,,,,,,,,,,,,,,,,,,,,,,,,,,,,,,,,,,,,,,,,,,,,,,,,,,,,,,,,,,,,,,,,,,,,,,,,,,,,,,,,,,,,,,,,,,,,,,,,,,,,132.2355,132.5843,0.0005,0.3492,132.5843,132.586,134.6348,2.05,,,,[],[],[],[],[],[],[],0,44,44,44,1,objects,lethality,1,0.35,0.15,1.9,images/Inert_Book_Orange_Rect.png,images/Lethal_Noose_1_Blue_Rect.png,images/Lethal_Razor_Orange_Rhom.png,,
,,,,,,,,,,,,,,,,,,sert_test_1,2,2026-04-09_09h30.49.614,sert_artemis_2025.2.3,2025.2.4,Win32,60.24096386,,,,,,,,,,,,,,,,,,,,,,,,,,,,,,,,,,,,,,,,,,,,,,,,,,,,,,,,,,,,,,,,,,,,,,,,,,,,,,,,,,,,,,,,,,,,,,,,,,,,,,,,,,,,,,,,,,134.6362,135.1845,0.0008,0.5488,135.1845,135.1863,137.234,2.05,,,,[],[],[],[],[],[],[],0,45,45,45,1,objects,shape,3,0.55,0.15,1.9,images/Inert_Hairbrush_Blue_Rhom.png,images/Lethal_Razor_Orange_Rhom.png,images/Inert_Strawberry_Orange_Rect.png,,
,,,,,,,,,,,,,,,,,,sert_test_1,2,2026-04-09_09h30.49.614,sert_artemis_2025.2.3,2025.2.4,Win32,60.24096386,,,,,,,,,,,,,,,,,,,,,,,,,,,,,,,,,,,,,,,,,,,,,,,,,,,,,,,,,,,,,,,,,,,,,,,,,,,,,,,,,,,,,,,,,,,,,,,,,,,,,,,,,,,,,,,,,,137.2345,137.6846,0.0003,0.4502,137.6846,137.6861,139.7343,2.05,,,,[],[],[],[],[],[],[],0,46,46,46,1,objects,lethality,1,0.45,0.15,1.9,images/Lethal_Noose_1_Orange_Oval.png,images/Inert_Camera_Orange_Rect.png,images/Inert_Book_Blue_Oval.png,,
,,,,,,,,,,,,,,,,,,sert_test_1,2,2026-04-09_09h30.49.614,sert_artemis_2025.2.3,2025.2.4,Win32,60.24096386,,,,,,,,,,,,,,,,,,,,,,,,,,,,,,,,,,,,,,,,,,,,,,,,,,,,,,,,,,,,,,,,,,,,,,,,,,,,,,,,,,,,,,,,,,,,,,,,,,,,,,,,,,,,,,,,,,139.7354,140.2842,0.0009,0.5495,140.2842,140.2856,142.3341,2.05,,,,[],[],[],[],[],[],[],0,47,47,47,1,objects,color,3,0.55,0.15,1.9,images/Safe_LifeVest_Orange_Rhom.png,images/Lethal_Pills_Orange_Rect.png,images/Safe_SeatBelt_Blue_Rect.png,,
,,,,,,,,,,,,,,,,,,sert_test_1,2,2026-04-09_09h30.49.614,sert_artemis_2025.2.3,2025.2.4,Win32,60.24096386,,,,,,,,,,,,,,,,,,,,,,,,,,,,,,,,,,,,,,,,,,,,,,,,,,,,,,,,,,,,,,,,,,,,,,,,,,,,,,,,,,,,,,,,,,,,,,,,,,,,,,,,,,,,,,,,,,142.3347,142.8844,0.0004,0.55,142.8844,142.8852,144.9342,2.05,,,,[],[],[],[],[],[],[],0,48,48,48,1,objects,lethality,3,0.55,0.15,1.9,images/Lethal_Gun_1_Blue_Oval.png,images/Lethal_Poison_Orange_Rhom.png,images/Inert_Camera_Blue_Rhom.png,,
,,,,,,,,,,,,,,,,,,sert_test_1,2,2026-04-09_09h30.49.614,sert_artemis_2025.2.3,2025.2.4,Win32,60.24096386,,,,,,,,,,,,,,,,,,,,,,,,,,,,,,,,,,,,,,,,,,,,,,,,,,,,,,,,,,,,,,,,,,,,,,,,,,,,,,,,,,,,,,,,,,,,,,,,,,,,,,,,,,,,,,,,,,144.9351,145.2843,0.0005,0.3495,145.2843,145.2852,147.3341,2.05,,,,[],[],[],[],[],[],[],0,49,49,49,1,objects,shape,3,0.35,0.15,1.9,images/Lethal_Pills_Blue_Rhom.png,images/Inert_Hat_Orange_Rhom.png,images/Inert_Strawberry_Blue_Rect.png,,
,,,,,,,,,,,,,,,,,,sert_test_1,2,2026-04-09_09h30.49.614,sert_artemis_2025.2.3,2025.2.4,Win32,60.24096386,,,,,,,,,,,,,,,,,,,,,,,,,,,,,,,,,,,,,,,,,,,,,,,,,,,,,,,,,,,,,,,,,,,,,,,,,,,,,,,,,,,,,,,,,,,,,,,,,,,,,,,,,,,,,,,,,,147.3356,147.6841,0.0009,0.3492,147.6841,147.685,149.734,2.05,,,,[],[],[],[],[],[],[],0,50,50,50,1,objects,color,2,0.35,0.15,1.9,images/Lethal_Noose_1_Orange_Rect.png,images/Safe_Goggles_Blue_Rect.png,images/Safe_Buoy_Orange_Oval.png,,
,,,,,,,,,,,,,,,,,,sert_test_1,2,2026-04-09_09h30.49.614,sert_artemis_2025.2.3,2025.2.4,Win32,60.24096386,,,,,,,,,,,,,,,,,,,,,,,,,,,,,,,,,,,,,,,,,,,,,,,,,,,,,,,,,,,,,,,,,,,,,,,,,,,,,,,,,,,,,,,,,,,,,,,,,,,,,,,,,,,,,,,,,,149.7344,150.184,0,0.4495,150.184,150.1846,152.2338,2.05,,,,[],[],[],[],[],[],[],0,51,51,51,1,objects,color,3,0.45,0.15,1.9,images/Lethal_Knife_Blue_Rect.png,images/Inert_Camera_Blue_Rhom.png,images/Lethal_Noose_1_Orange_Rhom.png,,
,,,,,,,,,,,,,,,,,,sert_test_1,2,2026-04-09_09h30.49.614,sert_artemis_2025.2.3,2025.2.4,Win32,60.24096386,,,,,,,,,,,,,,,,,,,,,,,,,,,,,,,,,,,,,,,,,,,,,,,,,,,,,,,,,,,,,,,,,,,,,,,,,,,,,,,,,,,,,,,,,,,,,,,,,,,,,,,,,,,,,,,,,,152.234,152.6841,0,0.4499,152.6841,152.6849,154.7339,2.05,,,,[],[],[],[],[],[],[],0,52,52,52,1,objects,color,3,0.45,0.15,1.9,images/Safe_LifeVest_Orange_Oval.png,images/Lethal_Razor_Orange_Rect.png,images/Safe_Extinguisher_Blue_Rect.png,,
,,,,,,,,,,,,,,,,,,sert_test_1,2,2026-04-09_09h30.49.614,sert_artemis_2025.2.3,2025.2.4,Win32,60.24096386,,,,,,,,,,,,,,,,,,,,,,,,,,,,,,,,,,,,,,,,,,,,,,,,,,,,,,,,,,,,,,,,,,,,,,,,,,,,,,,,,,,,,,,,,,,,,,,,,,,,,,,,,,,,,,,,,,154.7341,155.2839,0,0.5498,155.2839,155.2847,157.3338,2.05,,,,[],[],[],[],[],[],[],0,53,53,53,1,objects,color,3,0.55,0.15,1.9,images/Safe_Buoy_Blue_Rhom.png,images/Lethal_Pills_Blue_Rect.png,images/Safe_BearHug_Orange_Rect.png,,
,,,,,,,,,,,,,,,,,,sert_test_1,2,2026-04-09_09h30.49.614,sert_artemis_2025.2.3,2025.2.4,Win32,60.24096386,,,,,,,,,,,,,,,,,,,,,,,,,,,,,,,,,,,,,,,,,,,,,,,,,,,,,,,,,,,,,,,,,,,,,,,,,,,,,,,,,,,,,,,,,,,,,,,,,,,,,,,,,,,,,,,,,,157.3346,157.884,1.00E-04,0.5493,157.884,157.8847,159.9339,2.05,,,,[],[],[],[],[],[],[],0,54,54,54,1,objects,color,2,0.55,0.15,1.9,images/Safe_LifeVest_Orange_Oval.png,images/Safe_BearHug_Blue_Rhom.png,images/Lethal_Gun_1_Orange_Rhom.png,,
,,,,,,,,,,,,,,,,,,sert_test_1,2,2026-04-09_09h30.49.614,sert_artemis_2025.2.3,2025.2.4,Win32,60.24096386,,,,,,,,,,,,,,,,,,,,,,,,,,,,,,,,,,,,,,,,,,,,,,,,,,,,,,,,,,,,,,,,,,,,,,,,,,,,,,,,,,,,,,,,,,,,,,,,,,,,,,,,,,,,,,,,,,159.9344,160.3839,1.00E-04,0.4495,160.384,160.3848,162.4339,2.05,,,,[],[],[],[],[],[],[],0,55,55,55,1,objects,color,2,0.45,0.15,1.9,images/Lethal_Knife_Blue_Rect.png,images/Safe_Extinguisher_Orange_Rect.png,images/Safe_LifeVest_Blue_Rhom.png,,
,,,,,,,,,,,,,,,,,,sert_test_1,2,2026-04-09_09h30.49.614,sert_artemis_2025.2.3,2025.2.4,Win32,60.24096386,,,,,,,,,,,,,,,,,,,,,,,,,,,,,,,,,,,,,,,,,,,,,,,,,,,,,,,,,,,,,,,,,,,,,,,,,,,,,,,,,,,,,,,,,,,,,,,,,,,,,,,,,,,,,,,,,,162.4343,162.9838,0,0.5495,162.9839,162.9843,165.034,2.05,,,,[],[],[],[],[],[],[],0,56,56,56,1,objects,color,2,0.55,0.15,1.9,images/Lethal_Razor_Blue_Rect.png,images/Safe_Buoy_Orange_Rect.png,images/Safe_SeatBelt_Blue_Rhom.png,,
,,,,,,,,,,,,,,,,,,sert_test_1,2,2026-04-09_09h30.49.614,sert_artemis_2025.2.3,2025.2.4,Win32,60.24096386,,,,,,,,,,,,,,,,,,,,,,,,,,,,,,,,,,,,,,,,,,,,,,,,,,,,,,,,,,,,,,,,,,,,,,,,,,,,,,,,,,,,,,,,,,,,,,,,,,,,,,,,,,,,,,,,,,165.0343,165.3838,0,0.3495,165.3838,165.3845,167.4339,2.05,,,,[],[],[],[],[],[],[],0,57,57,57,1,objects,color,3,0.35,0.15,1.9,images/Lethal_Pills_Orange_Rhom.png,images/Inert_Strawberry_Orange_Oval.png,images/Inert_Book_Blue_Rhom.png,,
,,,,,,,,,,,,,,,,,,sert_test_1,2,2026-04-09_09h30.49.614,sert_artemis_2025.2.3,2025.2.4,Win32,60.24096386,,,,,,,,,,,,,,,,,,,,,,,,,,,,,,,,,,,,,,,,,,,,,,,,,,,,,,,,,,,,,,,,,,,,,,,,,,,,,,,,,,,,,,,,,,,,,,,,,,,,,,,,,,,,,,,,,,167.4343,167.8839,0,0.4495,167.8839,167.8845,169.9338,2.05,,,,[],[],[],[],[],[],[],0,58,58,58,1,objects,color,3,0.45,0.15,1.9,images/Safe_SeatBelt_Orange_Oval.png,images/Lethal_Gun_1_Orange_Rhom.png,images/Safe_Buoy_Blue_Rhom.png,,
,,,,,,,,,,,,,,,,,,sert_test_1,2,2026-04-09_09h30.49.614,sert_artemis_2025.2.3,2025.2.4,Win32,60.24096386,,,,,,,,,,,,,,,,,,,,,,,,,,,,,,,,,,,,,,,,,,,,,,,,,,,,,,,,,,,,,,,,,,,,,,,,,,,,,,,,,,,,,,,,,,,,,,,,,,,,,,,,,,,,,,,,,,169.9342,170.4838,0,0.5495,170.4838,170.4848,172.5341,2.05,,,,[],[],[],[],[],[],[],0,59,59,59,1,objects,color,3,0.55,0.15,1.9,images/Inert_Book_Blue_Rhom.png,images/Lethal_Knife_Blue_Rect.png,images/Inert_Hairbrush_Orange_Rect.png,,
,,,,,,,,,,,,,,,,,,sert_test_1,2,2026-04-09_09h30.49.614,sert_artemis_2025.2.3,2025.2.4,Win32,60.24096386,,,,,,,,,,,,,,,,,,,,,,,,,,,,,,,,,,,,,,,,,,,,,,,,,,,,,,,,,,,,,,,,,,,,,,,,,,,,,,,,,,,,,,,,,,,,,,,,,,,,,,,,,,,,,,,,,,172.5349,173.0838,0.0004,0.5492,173.0838,173.0848,175.1344,2.05,,,,[],[],[],[],[],[],[],0,60,60,60,1,objects,shape,3,0.55,0.15,1.9,images/Safe_LifeVest_Blue_Rhom.png,images/Lethal_Pills_Orange_Rhom.png,images/Safe_BearHug_Orange_Oval.png,,
,,,,,,,,,,,,,,,,,,sert_test_1,2,2026-04-09_09h30.49.614,sert_artemis_2025.2.3,2025.2.4,Win32,60.24096386,,,,,,,,,,,,,,,,,,,,,,,,,,,,,,,,,,,,,,,,,,,,,,,,,,,,,,,,,,,,,,,,,,,,,,,,,,,,,,,,,,,,,,,,,,,,,,,,,,,,,,,,,,,,,,,,,,175.135,175.6843,0,0.5491,175.6844,175.685,177.7338,2.05,,,,[],[],[],[],[],[],[],0,61,61,61,1,objects,shape,2,0.55,0.15,1.9,images/Safe_Extinguisher_Orange_Oval.png,images/Safe_LifeVest_Blue_Rect.png,images/Lethal_Knife_Blue_Oval.png,,
,,,,,,,,,,,,,,,,,,sert_test_1,2,2026-04-09_09h30.49.614,sert_artemis_2025.2.3,2025.2.4,Win32,60.24096386,,,,,,,,,,,,,,,,,,,,,,,,,,,,,,,,,,,,,,,,,,,,,,,,,,,,,,,,,,,,,,,,,,,,,,,,,,,,,,,,,,,,,,,,,,,,,,,,,,,,,,,,,,,,,,,,,,177.7339,178.1843,0,0.4501,178.1843,178.1851,180.2336,2.05,,,,[],[],[],[],[],[],[],0,62,62,62,1,objects,shape,2,0.45,0.15,1.9,images/Inert_Hat_Blue_Rhom.png,images/Lethal_Noose_1_Blue_Rect.png,images/Lethal_Poison_Orange_Rhom.png,,
,,,,,,,,,,,,,,,,,,sert_test_1,2,2026-04-09_09h30.49.614,sert_artemis_2025.2.3,2025.2.4,Win32,60.24096386,,,,,,,,,,,,,,,,,,,,,,,,,,,,,,,,,,,,,,,,,,,,,,,,,,,,,,,,,,,,,,,,,,,,,,,,,,,,,,,,,,,,,,,,,,,,,,,,,,,,,,,,,,,,,,,,,,180.234,180.6835,0.0002,0.4496,180.6835,180.6841,182.7337,2.05,,,,[],[],[],[],[],[],[],0,63,63,63,1,objects,color,2,0.45,0.15,1.9,images/Lethal_Razor_Orange_Rect.png,images/Inert_Camera_Blue_Rect.png,images/Inert_Book_Orange_Oval.png,,
,,,,,,,,,,,,,,,,,,sert_test_1,2,2026-04-09_09h30.49.614,sert_artemis_2025.2.3,2025.2.4,Win32,60.24096386,,,,,,,,,,,,,,,,,,,,,,,,,,,,,,,,,,,,,,,,,,,,,,,,,,,,,,,,,,,,,,,,,,,,,,,,,,,,,,,,,,,,,,,,,,,,,,,,,,,,,,,,,,,,,,,,,,182.734,183.2836,0,0.5495,183.2836,183.2844,185.3342,2.05,,,,[],[],[],[],[],[],[],0,64,64,64,1,objects,color,2,0.55,0.15,1.9,images/Lethal_Noose_1_Orange_Rect.png,images/Safe_Buoy_Blue_Rect.png,images/Safe_Extinguisher_Orange_Oval.png,,
,,,,,,,,,,,,,,,,,,sert_test_1,2,2026-04-09_09h30.49.614,sert_artemis_2025.2.3,2025.2.4,Win32,60.24096386,,,,,,,,,,,,,,,,,,,,,,,,,,,,,,,,,,,,,,,,,,,,,,,,,,,,,,,,,,,,,,,,,,,,,,,,,,,,,,,,,,,,,,,,,,,,,,,,,,,,,,,,,,,,,,,,,,185.3349,185.684,0,0.3491,185.684,185.6845,187.7341,2.05,,,,[],[],[],[],[],[],[],0,65,65,65,1,objects,color,3,0.35,0.15,1.9,images/Lethal_Pills_Blue_Oval.png,images/Safe_BearHug_Blue_Rhom.png,images/Safe_LifeVest_Orange_Oval.png,,
,,,,,,,,,,,,,,,,,,sert_test_1,2,2026-04-09_09h30.49.614,sert_artemis_2025.2.3,2025.2.4,Win32,60.24096386,,,,,,,,,,,,,,,,,,,,,,,,,,,,,,,,,,,,,,,,,,,,,,,,,,,,,,,,,,,,,,,,,,,,,,,,,,,,,,,,,,,,,,,,,,,,,,,,,,,,,,,,,,,,,,,,,,187.735,188.2842,0.0006,0.5497,188.2842,188.2849,190.3335,2.05,,,,[],[],[],[],[],[],[],0,66,66,66,1,objects,lethality,1,0.55,0.15,1.9,images/Lethal_Pills_Blue_Rect.png,images/Inert_Camera_Orange_Rect.png,images/Inert_Orange_Blue_Oval.png,,
,,,,,,,,,,,,,,,,,,sert_test_1,2,2026-04-09_09h30.49.614,sert_artemis_2025.2.3,2025.2.4,Win32,60.24096386,,,,,,,,,,,,,,,,,,,,,,,,,,,,,,,,,,,,,,,,,,,,,,,,,,,,,,,,,,,,,,,,,,,,,,,,,,,,,,,,,,,,,,,,,,,,,,,,,,,,,,,,,,,,,,,,,,190.3346,190.7835,0.0008,0.4497,190.7835,190.7841,192.8341,2.05,,,,[],[],[],[],[],[],[],0,67,67,67,1,objects,color,3,0.45,0.15,1.9,images/Safe_Buoy_Blue_Oval.png,images/Lethal_Gun_1_Blue_Rhom.png,images/Safe_Goggles_Orange_Rhom.png,,
,,,,,,,,,,,,,,,,,,sert_test_1,2,2026-04-09_09h30.49.614,sert_artemis_2025.2.3,2025.2.4,Win32,60.24096386,,,,,,,,,,,,,,,,,,,,,,,,,,,,,,,,,,,,,,,,,,,,,,,,,,,,,,,,,,,,,,,,,,,,,,,,,,,,,,,,,,,,,,,,,,,,,,,,,,,,,,,,,,,,,,,,,,192.8345,193.1836,0,0.349,193.1836,193.1843,195.2339,2.05,,,,[],[],[],[],[],[],[],0,68,68,68,1,objects,color,3,0.35,0.15,1.9,images/Inert_Orange_Blue_Rect.png,images/Lethal_Noose_1_Blue_Oval.png,images/Lethal_Gun_1_Orange_Rect.png,,
,,,,,,,,,,,,,,,,,,sert_test_1,2,2026-04-09_09h30.49.614,sert_artemis_2025.2.3,2025.2.4,Win32,60.24096386,,,,,,,,,,,,,,,,,,,,,,,,,,,,,,,,,,,,,,,,,,,,,,,,,,,,,,,,,,,,,,,,,,,,,,,,,,,,,,,,,,,,,,,,,,,,,,,,,,,,,,,,,,,,,,,,,,195.2346,195.7836,0.0005,0.5494,195.7836,195.7844,197.8334,2.05,,,,[],[],[],[],[],[],[],0,69,69,69,1,objects,shape,3,0.55,0.15,1.9,images/Safe_Extinguisher_Blue_Rhom.png,images/Lethal_Razor_Orange_Rhom.png,images/Safe_Goggles_Orange_Rect.png,,
,,,,,,,,,,,,,,,,,,sert_test_1,2,2026-04-09_09h30.49.614,sert_artemis_2025.2.3,2025.2.4,Win32,60.24096386,,,,,,,,,,,,,,,,,,,,,,,,,,,,,,,,,,,,,,,,,,,,,,,,,,,,,,,,,,,,,,,,,,,,,,,,,,,,,,,,,,,,,,,,,,,,,,,,,,,,,,,,,,,,,,,,,,197.8336,198.2834,0,0.4498,198.2835,198.284,200.3336,2.05,,,,[],[],[],[],[],[],[],0,70,70,70,1,objects,shape,2,0.45,0.15,1.9,images/Lethal_Noose_1_Orange_Oval.png,images/Lethal_Pills_Orange_Rhom.png,images/Inert_Hairbrush_Blue_Oval.png,,
,,,,,,,,,,,,,,,,,,sert_test_1,2,2026-04-09_09h30.49.614,sert_artemis_2025.2.3,2025.2.4,Win32,60.24096386,,,,,,,,,,,,,,,,,,,,,,,,,,,,,,,,,,,,,,,,,,,,,,,,,,,,,,,,,,,,,,,,,,,,,,,,,,,,,,,,,,,,,,,,,,,,,,,,,,,,,,,,,,,,,,,,,,200.3342,200.8835,0,0.5491,200.8835,200.8843,202.9335,2.05,,,,[],[],[],[],[],[],[],0,71,71,71,1,objects,shape,1,0.55,0.15,1.9,images/Safe_Buoy_Orange_Oval.png,images/Safe_BearHug_Blue_Rhom.png,images/Lethal_Noose_1_Orange_Rhom.png,,
,,,,,,,,,,,,,,,,,,sert_test_1,2,2026-04-09_09h30.49.614,sert_artemis_2025.2.3,2025.2.4,Win32,60.24096386,,,,,,,,,,,,,,,,,,,,,,,,,,,,,,,,,,,,,,,,,,,,,,,,,,,,,,,,,,,,,,,,,,,,,,,,,,,,,,,,,,,,,,,,,,,,,,,,,,,,,,,,,,,,,,,,,,202.9343,203.2835,0,0.3491,203.2835,203.284,205.3334,2.05,,,,[],[],[],[],[],[],[],0,72,72,72,1,objects,shape,1,0.35,0.15,1.9,images/Safe_Goggles_Orange_Rhom.png,images/Lethal_Knife_Orange_Oval.png,images/Safe_Buoy_Blue_Oval.png,,
,,,,,,,,,,,,,,,,,,sert_test_1,2,2026-04-09_09h30.49.614,sert_artemis_2025.2.3,2025.2.4,Win32,60.24096386,,,,,,,,,,,,,,,,,,,,,,,,,,,,,,,,,,,,,,,,,,,,,,,,,,,,,,,,,,,,,,,,,,,,,,,,,,,,,,,,,,,,,,,,,,,,,,,,,,,,,,,,,,,,,,,,,,205.3337,205.8834,0,0.5496,205.8834,205.8842,207.9333,2.05,,,,[],[],[],[],[],[],[],0,73,73,73,1,objects,shape,2,0.55,0.15,1.9,images/Inert_Hat_Blue_Rect.png,images/Inert_Strawberry_Orange_Rhom.png,images/Lethal_Poison_Orange_Rect.png,,
,,,,,,,,,,,,,,,,,,sert_test_1,2,2026-04-09_09h30.49.614,sert_artemis_2025.2.3,2025.2.4,Win32,60.24096386,,,,,,,,,,,,,,,,,,,,,,,,,,,,,,,,,,,,,,,,,,,,,,,,,,,,,,,,,,,,,,,,,,,,,,,,,,,,,,,,,,,,,,,,,,,,,,,,,,,,,,,,,,,,,,,,,,207.9337,208.3833,0,0.4495,208.3833,208.3837,210.4338,2.05,,,,[],[],[],[],[],[],[],0,74,74,74,1,objects,shape,1,0.45,0.15,1.9,images/Safe_Goggles_Orange_Oval.png,images/Lethal_Poison_Orange_Rect.png,images/Safe_SeatBelt_Blue_Rect.png,,
,,,,,,,,,,,,,,,,,,sert_test_1,2,2026-04-09_09h30.49.614,sert_artemis_2025.2.3,2025.2.4,Win32,60.24096386,,,,,,,,,,,,,,,,,,,,,,,,,,,,,,,,,,,,,,,,,,,,,,,,,,,,,,,,,,,,,,,,,,,,,,,,,,,,,,,,,,,,,,,,,,,,,,,,,,,,,,,,,,,,,,,,,,210.4344,210.7836,0,0.3491,210.7836,210.785,212.8338,2.05,,,,[],[],[],[],[],[],[],0,75,75,75,1,objects,shape,3,0.35,0.15,1.9,images/Lethal_Knife_Blue_Oval.png,images/Inert_Hairbrush_Orange_Oval.png,images/Inert_Camera_Blue_Rhom.png,,
,,,,,,,,,,,,,,,,,,sert_test_1,2,2026-04-09_09h30.49.614,sert_artemis_2025.2.3,2025.2.4,Win32,60.24096386,,,,,,,,,,,,,,,,,,,,,,,,,,,,,,,,,,,,,,,,,,,,,,,,,,,,,,,,,,,,,,,,,,,,,,,,,,,,,,,,,,,,,,,,,,,,,,,,,,,,,,,,,,,,,,,,,,212.8339,213.3834,0,0.5494,213.3834,213.3846,215.4334,2.05,,,,[],[],[],[],[],[],[],0,76,76,76,1,objects,shape,2,0.55,0.15,1.9,images/Inert_Strawberry_Orange_Oval.png,images/Lethal_Poison_Orange_Rect.png,images/Lethal_Razor_Blue_Oval.png,,
,,,,,,,,,,,,,,,,,,sert_test_1,2,2026-04-09_09h30.49.614,sert_artemis_2025.2.3,2025.2.4,Win32,60.24096386,,,,,,,,,,,,,,,,,,,,,,,,,,,,,,,,,,,,,,,,,,,,,,,,,,,,,,,,,,,,,,,,,,,,,,,,,,,,,,,,,,,,,,,,,,,,,,,,,,,,,,,,,,,,,,,,,,215.4336,215.7836,0,0.3498,215.7836,215.7846,217.8335,2.05,,,,[],[],[],[],[],[],[],0,77,77,77,1,objects,shape,3,0.35,0.15,1.9,images/Safe_Buoy_Orange_Rect.png,images/Lethal_Knife_Blue_Rect.png,images/Safe_Extinguisher_Blue_Oval.png,,
,,,,,,,,,,,,,,,,,,sert_test_1,2,2026-04-09_09h30.49.614,sert_artemis_2025.2.3,2025.2.4,Win32,60.24096386,,,,,,,,,,,,,,,,,,,,,,,,,,,,,,,,,,,,,,,,,,,,,,,,,,,,,,,,,,,,,,,,,,,,,,,,,,,,,,,,,,,,,,,,,,,,,,,,,,,,,,,,,,,,,,,,,,217.8339,218.3834,0,0.5494,218.3834,218.3841,220.4334,2.05,,,,[],[],[],[],[],[],[],0,78,78,78,1,objects,shape,3,0.55,0.15,1.9,images/Lethal_Pills_Blue_Rect.png,images/Safe_SeatBelt_Orange_Rect.png,images/Safe_Goggles_Blue_Rhom.png,,
,,,,,,,,,,,,,,,,,,sert_test_1,2,2026-04-09_09h30.49.614,sert_artemis_2025.2.3,2025.2.4,Win32,60.24096386,,,,,,,,,,,,,,,,,,,,,,,,,,,,,,,,,,,,,,,,,,,,,,,,,,,,,,,,,,,,,,,,,,,,,,,,,,,,,,,,,,,,,,,,,,,,,,,,,,,,,,,,,,,,,,,,,,220.4338,220.9831,0,0.5492,220.9831,220.9835,223.0342,2.05,,,,[],[],[],[],[],[],[],0,79,79,79,1,objects,shape,1,0.55,0.15,1.9,images/Safe_SeatBelt_Orange_Rhom.png,images/Lethal_Noose_1_Orange_Oval.png,images/Lethal_Knife_Blue_Oval.png,,
,,,,,,,,,,,,,,,,,,sert_test_1,2,2026-04-09_09h30.49.614,sert_artemis_2025.2.3,2025.2.4,Win32,60.24096386,,,,,,,,,,,,,,,,,,,,,,,,,,,,,,,,,,,,,,,,,,,,,,,,,,,,,,,,,,,,,,,,,,,,,,,,,,,,,,,,,,,,,,,,,,,,,,,,,,,,,,,,,,,,,,,,,,223.0344,223.4832,0,0.4487,223.4832,223.4839,225.5332,2.05,,,,[],[],[],[],[],[],[],0,80,80,80,1,objects,shape,3,0.45,0.15,1.9,images/Safe_Extinguisher_Blue_Rhom.png,images/Lethal_Poison_Orange_Rhom.png,images/Safe_SeatBelt_Orange_Oval.png,,
,,,,,,,,,,,,,,,,,,sert_test_1,2,2026-04-09_09h30.49.614,sert_artemis_2025.2.3,2025.2.4,Win32,60.24096386,,,,,,,,,,,,,,,,,,,,,,,,,,,,,,,,,,,,,,,,,,,,,,,,,,,,,,,,,,,,,,,,,,,,,,,,,,,,,,,,,,,,,,,,,,,,,,,,,,,,,,,,,,,,,,,,,,225.5335,225.8833,0,0.3496,225.8834,225.8844,227.9333,2.05,,,,[],[],[],[],[],[],[],0,81,81,81,1,objects,shape,2,0.35,0.15,1.9,images/Lethal_Razor_Orange_Oval.png,images/Safe_Buoy_Orange_Rect.png,images/Safe_BearHug_Blue_Oval.png,,
,,,,,,,,,,,,,,,,,,sert_test_1,2,2026-04-09_09h30.49.614,sert_artemis_2025.2.3,2025.2.4,Win32,60.24096386,,,,,,,,,,,,,,,,,,,,,,,,,,,,,,,,,,,,,,,,,,,,,,,,,,,,,,,,,,,,,,,,,,,,,,,,,,,,,,,,,,,,,,,,,,,,,,,,,,,,,,,,,,,,,,,,,,227.9337,228.3832,0.0003,0.4495,228.3832,228.3845,230.4334,2.05,,,,[],[],[],[],[],[],[],0,82,82,82,1,objects,color,3,0.45,0.15,1.9,images/Lethal_Noose_1_Orange_Rhom.png,images/Safe_Extinguisher_Orange_Rect.png,images/Safe_Goggles_Blue_Rhom.png,,
,,,,,,,,,,,,,,,,,,sert_test_1,2,2026-04-09_09h30.49.614,sert_artemis_2025.2.3,2025.2.4,Win32,60.24096386,,,,,,,,,,,,,,,,,,,,,,,,,,,,,,,,,,,,,,,,,,,,,,,,,,,,,,,,,,,,,,,,,,,,,,,,,,,,,,,,,,,,,,,,,,,,,,,,,,,,,,,,,,,,,,,,,,230.4338,230.8832,0,0.4493,230.8832,230.8843,232.9334,2.05,,,,[],[],[],[],[],[],[],0,83,83,83,1,objects,color,2,0.45,0.15,1.9,images/Inert_Orange_Blue_Oval.png,images/Inert_Book_Orange_Rhom.png,images/Lethal_Poison_Blue_Rhom.png,,
,,,,,,,,,,,,,,,,,,sert_test_1,2,2026-04-09_09h30.49.614,sert_artemis_2025.2.3,2025.2.4,Win32,60.24096386,,,,,,,,,,,,,,,,,,,,,,,,,,,,,,,,,,,,,,,,,,,,,,,,,,,,,,,,,,,,,,,,,,,,,,,,,,,,,,,,,,,,,,,,,,,,,,,,,,,,,,,,,,,,,,,,,,232.9345,233.3831,0.0009,0.4494,233.3831,233.3841,235.4332,2.05,,,,[],[],[],[],[],[],[],0,84,84,84,1,objects,lethality,3,0.45,0.15,1.9,images/Inert_Hairbrush_Blue_Rect.png,images/Inert_Camera_Orange_Oval.png,images/Lethal_Pills_Blue_Oval.png,,
,,,,,,,,,,,,,,,,,,sert_test_1,2,2026-04-09_09h30.49.614,sert_artemis_2025.2.3,2025.2.4,Win32,60.24096386,,,,,,,,,,,,,,,,,,,,,,,,,,,,,,,,,,,,,,,,,,,,,,,,,,,,,,,,,,,,,,,,,,,,,,,,,,,,,,,,,,,,,,,,,,,,,,,,,,,,,,,,,,,,,,,,,,235.4338,235.7836,0,0.3495,235.7836,235.7861,237.833,2.05,,,,[],[],[],[],[],[],[],0,85,85,85,1,objects,lethality,3,0.35,0.15,1.9,images/Lethal_Gun_1_Blue_Rect.png,images/Lethal_Pills_Orange_Rhom.png,images/Inert_Hat_Orange_Rect.png,,
,,,,,,,,,,,,,,,,,,sert_test_1,2,2026-04-09_09h30.49.614,sert_artemis_2025.2.3,2025.2.4,Win32,60.24096386,,,,,,,,,,,,,,,,,,,,,,,,,,,,,,,,,,,,,,,,,,,,,,,,,,,,,,,,,,,,,,,,,,,,,,,,,,,,,,,,,,,,,,,,,,,,,,,,,,,,,,,,,,,,,,,,,,237.8335,238.2829,0,0.4494,238.2829,238.2834,240.333,2.05,,,,[],[],[],[],[],[],[],0,86,86,86,1,objects,lethality,2,0.45,0.15,1.9,images/Lethal_Pills_Blue_Oval.png,images/Inert_Orange_Orange_Oval.png,images/Lethal_Knife_Orange_Rhom.png,,
,,,,,,,,,,,,,,,,,,sert_test_1,2,2026-04-09_09h30.49.614,sert_artemis_2025.2.3,2025.2.4,Win32,60.24096386,,,,,,,,,,,,,,,,,,,,,,,,,,,,,,,,,,,,,,,,,,,,,,,,,,,,,,,,,,,,,,,,,,,,,,,,,,,,,,,,,,,,,,,,,,,,,,,,,,,,,,,,,,,,,,,,,,240.3336,240.7829,0.0004,0.4496,240.7829,240.7838,242.8333,2.05,,,,[],[],[],[],[],[],[],0,87,87,87,1,objects,shape,2,0.45,0.15,1.9,images/Safe_Buoy_Blue_Rect.png,images/Safe_LifeVest_Orange_Oval.png,images/Lethal_Poison_Orange_Rect.png,,
,,,,,,,,,,,,,,,,,,sert_test_1,2,2026-04-09_09h30.49.614,sert_artemis_2025.2.3,2025.2.4,Win32,60.24096386,,,,,,,,,,,,,,,,,,,,,,,,,,,,,,,,,,,,,,,,,,,,,,,,,,,,,,,,,,,,,,,,,,,,,,,,,,,,,,,,,,,,,,,,,,,,,,,,,,,,,,,,,,,,,,,,,,242.8344,243.383,0.0007,0.5493,243.3831,243.3848,245.4331,2.05,,,,[],[],[],[],[],[],[],0,88,88,88,1,objects,color,2,0.55,0.15,1.9,images/Lethal_Gun_1_Blue_Rect.png,images/Inert_Strawberry_Orange_Oval.png,images/Lethal_Noose_1_Blue_Rhom.png,,
,,,,,,,,,,,,,,,,,,sert_test_1,2,2026-04-09_09h30.49.614,sert_artemis_2025.2.3,2025.2.4,Win32,60.24096386,,,,,,,,,,,,,,,,,,,,,,,,,,,,,,,,,,,,,,,,,,,,,,,,,,,,,,,,,,,,,,,,,,,,,,,,,,,,,,,,,,,,,,,,,,,,,,,,,,,,,,,,,,,,,,,,,,245.4336,245.7835,0,0.3496,245.7835,245.7845,247.8331,2.05,,,,[],[],[],[],[],[],[],0,89,89,89,1,objects,color,2,0.35,0.15,1.9,images/Safe_Buoy_Orange_Rhom.png,images/Safe_SeatBelt_Blue_Oval.png,images/Lethal_Pills_Orange_Oval.png,,
,,,,,,,,,,,,,,,,,,sert_test_1,2,2026-04-09_09h30.49.614,sert_artemis_2025.2.3,2025.2.4,Win32,60.24096386,,,,,,,,,,,,,,,,,,,,,,,,,,,,,,,,,,,,,,,,,,,,,,,,,,,,,,,,,,,,,,,,,,,,,,,,,,,,,,,,,,,,,,,,,,,,,,,,,,,,,,,,,,,,,,,,,,247.8341,248.2829,0.0006,0.4493,248.2829,248.2848,250.3331,2.05,,,,[],[],[],[],[],[],[],0,90,90,90,1,objects,lethality,1,0.45,0.15,1.9,images/Lethal_Knife_Blue_Rhom.png,images/Inert_Camera_Orange_Rhom.png,images/Inert_Orange_Blue_Rect.png,,
,,,,,,,,,,,,,,,,,,sert_test_1,2,2026-04-09_09h30.49.614,sert_artemis_2025.2.3,2025.2.4,Win32,60.24096386,,,,,,,,,,,,,,,,,,,,,,,,,,,,,,,,,,,,,,,,,,,,,,,,,,,,,,,,,,,,,,,,,,,,,,,,,,,,,,,,,,,,,,,,,,,,,,,,,,,,,,,,,,,,,,,,,,250.3335,250.8828,0,0.5492,250.8828,250.8833,252.9332,2.05,,,,[],[],[],[],[],[],[],0,91,91,91,1,objects,lethality,3,0.55,0.15,1.9,images/Safe_LifeVest_Orange_Rhom.png,images/Safe_BearHug_Blue_Oval.png,images/Lethal_Razor_Orange_Oval.png,,
,,,,,,,,,,,,,,,,,,sert_test_1,2,2026-04-09_09h30.49.614,sert_artemis_2025.2.3,2025.2.4,Win32,60.24096386,,,,,,,,,,,,,,,,,,,,,,,,,,,,,,,,,,,,,,,,,,,,,,,,,,,,,,,,,,,,,,,,,,,,,,,,,,,,,,,,,,,,,,,,,,,,,,,,,,,,,,,,,,,,,,,,,,252.9338,253.2829,0,0.349,253.2829,253.284,255.3327,2.05,,,,[],[],[],[],[],[],[],0,92,92,92,1,objects,lethality,2,0.35,0.15,1.9,images/Inert_Hat_Orange_Oval.png,images/Lethal_Poison_Blue_Oval.png,images/Inert_Hairbrush_Blue_Rhom.png,,
,,,,,,,,,,,,,,,,,,sert_test_1,2,2026-04-09_09h30.49.614,sert_artemis_2025.2.3,2025.2.4,Win32,60.24096386,,,,,,,,,,,,,,,,,,,,,,,,,,,,,,,,,,,,,,,,,,,,,,,,,,,,,,,,,,,,,,,,,,,,,,,,,,,,,,,,,,,,,,,,,,,,,,,,,,,,,,,,,,,,,,,,,,255.3331,255.6828,0,0.3496,255.6828,255.6836,257.7328,2.05,,,,[],[],[],[],[],[],[],0,93,93,93,1,objects,lethality,1,0.35,0.15,1.9,images/Lethal_Razor_Orange_Rhom.png,images/Inert_Camera_Blue_Rhom.png,images/Inert_Strawberry_Orange_Rect.png,,
,,,,,,,,,,,,,,,,,,sert_test_1,2,2026-04-09_09h30.49.614,sert_artemis_2025.2.3,2025.2.4,Win32,60.24096386,,,,,,,,,,,,,,,,,,,,,,,,,,,,,,,,,,,,,,,,,,,,,,,,,,,,,,,,,,,,,,,,,,,,,,,,,,,,,,,,,,,,,,,,,,,,,,,,,,,,,,,,,,,,,,,,,,257.7331,258.0827,1.00E-04,0.3497,258.0827,258.0834,260.1327,2.05,,,,[],[],[],[],[],[],[],0,94,94,94,1,objects,lethality,2,0.35,0.15,1.9,images/Safe_SeatBelt_Blue_Oval.png,images/Lethal_Knife_Orange_Oval.png,images/Safe_Goggles_Orange_Rect.png,,
,,,,,,,,,,,,,,,,,,sert_test_1,2,2026-04-09_09h30.49.614,sert_artemis_2025.2.3,2025.2.4,Win32,60.24096386,,,,,,,,,,,,,,,,,,,,,,,,,,,,,,,,,,,,,,,,,,,,,,,,,,,,,,,,,,,,,,,,,,,,,,,,,,,,,,,,,,,,,,,,,,,,,,,,,,,,,,,,,,,,,,,,,,260.1332,260.6827,0,0.5494,260.6827,260.6841,262.7328,2.05,,,,[],[],[],[],[],[],[],0,95,95,95,1,objects,lethality,1,0.55,0.15,1.9,images/Lethal_Noose_1_Blue_Rect.png,images/Safe_LifeVest_Orange_Rect.png,images/Safe_Extinguisher_Blue_Oval.png,,
,,,,,,,,,,,,,,,,,,sert_test_1,2,2026-04-09_09h30.49.614,sert_artemis_2025.2.3,2025.2.4,Win32,60.24096386,,,,,,,,,,,,,,,,,,,,,,,,,,,,,,,,,,,,,,,,,,,,,,,,,,,,,,,,,,,,,,,,,,,,,,,,,,,,,,,,,,,,,,,,,,,,,,,,,,,,,,,,,,,,,,,,,,262.7333,263.1828,0.0001,0.4495,263.1828,263.1833,265.2327,2.05,,,,[],[],[],[],[],[],[],0,96,96,96,1,objects,lethality,1,0.45,0.15,1.9,images/Lethal_Razor_Orange_Rect.png,images/Inert_Book_Blue_Rect.png,images/Inert_Orange_Orange_Rhom.png,,
,,,,,,,,,,,,,,,,,,sert_test_1,2,2026-04-09_09h30.49.614,sert_artemis_2025.2.3,2025.2.4,Win32,60.24096386,,,,,,,,,,,,,,,,,,,,,,,,,,,,,,,,,,,,,,,,,,,,,,,,,,,,,,,,,,,,,,,,,,,,,,,,,,,,,,,,,,,,,,,,,,,,,,,,,,,,,,,,,,,,,,,,,,265.2334,265.6827,0,0.4492,265.6827,265.6837,267.7328,2.05,,,,[],[],[],[],[],[],[],0,97,97,97,1,objects,lethality,1,0.45,0.15,1.9,images/Lethal_Poison_Blue_Rhom.png,images/Safe_Buoy_Orange_Rhom.png,images/Safe_LifeVest_Blue_Oval.png,,
,,,,,,,,,,,,,,,,,,sert_test_1,2,2026-04-09_09h30.49.614,sert_artemis_2025.2.3,2025.2.4,Win32,60.24096386,,,,,,,,,,,,,,,,,,,,,,,,,,,,,,,,,,,,,,,,,,,,,,,,,,,,,,,,,,,,,,,,,,,,,,,,,,,,,,,,,,,,,,,,,,,,,,,,,,,,,,,,,,,,,,,,,,267.7333,268.1826,0,0.4493,268.1826,268.183,270.2328,2.05,,,,[],[],[],[],[],[],[],0,98,98,98,1,objects,lethality,2,0.45,0.15,1.9,images/Inert_Hairbrush_Blue_Oval.png,images/Lethal_Noose_1_Orange_Oval.png,images/Inert_Book_Orange_Rect.png,,
,,,,,,,,,,,,,,,,,,sert_test_1,2,2026-04-09_09h30.49.614,sert_artemis_2025.2.3,2025.2.4,Win32,60.24096386,,,,,,,,,,,,,,,,,,,,,,,,,,,,,,,,,,,,,,,,,,,,,,,,,,,,,,,,,,,,,,,,,,,,,,,,,,,,,,,,,,,,,,,,,,,,,,,,,,,,,,,,,,,,,,,,,,270.2331,270.583,0,0.3496,270.583,270.584,272.6331,2.05,,,,[],[],[],[],[],[],[],0,99,99,99,1,objects,lethality,1,0.35,0.15,1.9,images/Lethal_Knife_Orange_Rect.png,images/Safe_BearHug_Blue_Rect.png,images/Safe_Goggles_Orange_Oval.png,,
,,,,,,,,,,,,,,,,,,sert_test_1,2,2026-04-09_09h30.49.614,sert_artemis_2025.2.3,2025.2.4,Win32,60.24096386,,,,,,,,,,,,,,,,,,,,,,,,,,,,,,,,,,,,,,,,,,,,,,,,,,,,,,,,,,,,,,,,,,,,,,,,,,,,,,,,,,,,,,,,,,,,,,,,,,,,,,,,,,,,,,,,,,272.6336,273.0828,0,0.449,273.0828,273.0837,275.1328,2.05,,,,[],[],[],[],[],[],[],0,100,100,100,1,objects,lethality,2,0.45,0.15,1.9,images/Safe_SeatBelt_Blue_Rect.png,images/Lethal_Razor_Blue_Rhom.png,images/Safe_Buoy_Orange_Rhom.png,,
,,,,,,,,,,,,,,,,,,sert_test_1,2,2026-04-09_09h30.49.614,sert_artemis_2025.2.3,2025.2.4,Win32,60.24096386,,,,,,,,,,,,,,,,,,,,,,,,,,,,,,,,,,,,,,,,,,,,,,,,,,,,,,,,,,,,,,,,,,,,,,,,,,,,,,,,,,,,,,,,,,,,,,,,,,,,,,,,,,,,,,,,,,275.1337,275.4829,0,0.3491,275.4829,275.4834,277.5326,2.05,,,,[],[],[],[],[],[],[],0,101,101,101,1,objects,lethality,1,0.35,0.15,1.9,images/Lethal_Noose_1_Orange_Rect.png,images/Safe_Buoy_Blue_Rect.png,images/Safe_BearHug_Orange_Oval.png,,
,,,,,,,,,,,,,,,,,,sert_test_1,2,2026-04-09_09h30.49.614,sert_artemis_2025.2.3,2025.2.4,Win32,60.24096386,,,,,,,,,,,,,,,,,,,,,,,,,,,,,,,,,,,,,,,,,,,,,,,,,,,,,,,,,,,,,,,,,,,,,,,,,,,,,,,,,,,,,,,,,,,,,,,,,,,,,,,,,,,,,,,,,,277.5329,277.8827,0,0.3495,277.8827,277.8833,279.9326,2.05,,,,[],[],[],[],[],[],[],0,102,102,102,1,objects,lethality,3,0.35,0.15,1.9,images/Lethal_Gun_1_Blue_Rect.png,images/Lethal_Noose_1_Orange_Rhom.png,images/Safe_Goggles_Orange_Rect.png,,
,,,,,,,,,,,,,,,,,,sert_test_1,2,2026-04-09_09h30.49.614,sert_artemis_2025.2.3,2025.2.4,Win32,60.24096386,,,,,,,,,,,,,,,,,,,,,,,,,,,,,,,,,,,,,,,,,,,,,,,,,,,,,,,,,,,,,,,,,,,,,,,,,,,,,,,,,,,,,,,,,,,,,,,,,,,,,,,,,,,,,,,,,,279.9337,280.4829,0.0006,0.5495,280.483,280.4834,282.5325,2.05,,,,[],[],[],[],[],[],[],0,103,103,103,1,objects,color,1,0.55,0.15,1.9,images/Lethal_Gun_1_Blue_Oval.png,images/Safe_Extinguisher_Orange_Oval.png,images/Lethal_Pills_Orange_Rhom.png,,
,,,,,,,,,,,,,,,,,,sert_test_1,2,2026-04-09_09h30.49.614,sert_artemis_2025.2.3,2025.2.4,Win32,60.24096386,,,,,,,,,,,,,,,,,,,,,,,,,,,,,,,,,,,,,,,,,,,,,,,,,,,,,,,,,,,,,,,,,,,,,,,,,,,,,,,,,,,,,,,,,,,,,,,,,,,,,,,,,,,,,,,,,,282.534,282.8825,0.0012,0.3495,282.8825,282.8839,284.9326,2.05,,,,[],[],[],[],[],[],[],0,104,104,104,1,objects,shape,3,0.35,0.15,1.9,images/Lethal_Poison_Blue_Oval.png,images/Inert_Camera_Orange_Oval.png,images/Inert_Camera_Blue_Rect.png,,
,,,,,,,,,,,,,,,,,,sert_test_1,2,2026-04-09_09h30.49.614,sert_artemis_2025.2.3,2025.2.4,Win32,60.24096386,,,,,,,,,,,,,,,,,,,,,,,,,,,,,,,,,,,,,,,,,,,,,,,,,,,,,,,,,,,,,,,,,,,,,,,,,,,,,,,,,,,,,,,,,,,,,,,,,,,,,,,,,,,,,,,,,,284.934,285.3824,0.0011,0.4494,285.3825,285.3835,287.4325,2.05,,,,[],[],[],[],[],[],[],0,105,105,105,1,objects,lethality,2,0.45,0.15,1.9,images/Lethal_Pills_Orange_Rect.png,images/Safe_Extinguisher_Orange_Rhom.png,images/Lethal_Gun_1_Blue_Rhom.png,,
,,,,,,,,,,,,,,,,,,sert_test_1,2,2026-04-09_09h30.49.614,sert_artemis_2025.2.3,2025.2.4,Win32,60.24096386,,,,,,,,,,,,,,,,,,,,,,,,,,,,,,,,,,,,,,,,,,,,,,,,,,,,,,,,,,,,,,,,,,,,,,,,,,,,,,,,,,,,,,,,,,,,,,,,,,,,,,,,,,,,,,,,,,287.433,287.8823,0,0.4493,287.8823,287.8825,289.9325,2.05,,,,[],[],[],[],[],[],[],0,106,106,106,1,objects,lethality,1,0.45,0.15,1.9,images/Lethal_Knife_Blue_Rhom.png,images/Inert_Hat_Blue_Rect.png,images/Inert_Strawberry_Orange_Rhom.png,,
,,,,,,,,,,,,,,,,,,sert_test_1,2,2026-04-09_09h30.49.614,sert_artemis_2025.2.3,2025.2.4,Win32,60.24096386,,,,,,,,,,,,,,,,,,,,,,,,,,,,,,,,,,,,,,,,,,,,,,,,,,,,,,,,,,,,,,,,,,,,,,,,,,,,,,,,,,,,,,,,,,,,,,,,,,,,,,,,,,,,,,,,,,289.9333,290.4825,0.0005,0.5495,290.4825,290.4837,292.5328,2.05,,,,[],[],[],[],[],[],[],0,107,107,107,1,objects,shape,1,0.55,0.15,1.9,images/Inert_Orange_Blue_Rect.png,images/Lethal_Pills_Blue_Rhom.png,images/Inert_Hat_Orange_Rhom.png,,
,,,,,,,,,,,,,,,,,,sert_test_1,2,2026-04-09_09h30.49.614,sert_artemis_2025.2.3,2025.2.4,Win32,60.24096386,,,,,,,,,,,,,,,,,,,,,,,,,,,,,,,,,,,,,,,,,,,,,,,,,,,,,,,,,,,,,,,,,,,,,,,,,,,,,,,,,,,,,,,,,,,,,,,,,,,,,,,,,,,,,,,,,,292.5333,292.9827,0,0.4493,292.9827,292.9836,295.0325,2.05,,,,[],[],[],[],[],[],[],0,108,108,108,1,objects,shape,3,0.45,0.15,1.9,images/Safe_SeatBelt_Blue_Rect.png,images/Lethal_Gun_1_Orange_Rect.png,images/Safe_Extinguisher_Orange_Oval.png,,
,,,,,,,,,,,,,,,,,,sert_test_1,2,2026-04-09_09h30.49.614,sert_artemis_2025.2.3,2025.2.4,Win32,60.24096386,,,,,,,,,,,,,,,,,,,,,,,,,,,,,,,,,,,,,,,,,,,,,,,,,,,,,,,,,,,,,,,,,,,,,,,,,,,,,,,,,,,,,,,,,,,,,,,,,,,,,,,,,,,,,,,,,,295.0339,295.3829,0.0003,0.3491,295.3829,295.3839,297.4323,2.05,,,,[],[],[],[],[],[],[],0,109,109,109,1,objects,color,1,0.35,0.15,1.9,images/Inert_Strawberry_Orange_Rect.png,images/Inert_Book_Blue_Oval.png,images/Lethal_Noose_1_Blue_Rect.png,,
,,,,,,,,,,,,,,,,,,sert_test_1,2,2026-04-09_09h30.49.614,sert_artemis_2025.2.3,2025.2.4,Win32,60.24096386,,,,,,,,,,,,,,,,,,,,,,,,,,,,,,,,,,,,,,,,,,,,,,,,,,,,,,,,,,,,,,,,,,,,,,,,,,,,,,,,,,,,,,,,,,,,,,,,,,,,,,,,,,,,,,,,,,297.4333,297.8823,0.0005,0.4494,297.8823,297.8836,299.9324,2.05,,,,[],[],[],[],[],[],[],0,110,110,110,1,objects,lethality,3,0.45,0.15,1.9,images/Lethal_Knife_Blue_Oval.png,images/Lethal_Poison_Orange_Rhom.png,images/Safe_Goggles_Orange_Oval.png,,
,,,,,,,,,,,,,,,,,,sert_test_1,2,2026-04-09_09h30.49.614,sert_artemis_2025.2.3,2025.2.4,Win32,60.24096386,,,,,,,,,,,,,,,,,,,,,,,,,,,,,,,,,,,,,,,,,,,,,,,,,,,,,,,,,,,,,,,,,,,,,,,,,,,,,,,,,,,,,,,,,,,,,,,,,,,,,,,,,,,,,,,,,,299.9326,300.4823,0,0.5496,300.4823,300.4838,302.5325,2.05,,,,[],[],[],[],[],[],[],0,111,111,111,1,objects,lethality,3,0.55,0.15,1.9,images/Lethal_Poison_Orange_Rect.png,images/Lethal_Noose_1_Blue_Oval.png,images/Safe_Buoy_Orange_Oval.png,,
,,,,,,,,,,,,,,,,,,sert_test_1,2,2026-04-09_09h30.49.614,sert_artemis_2025.2.3,2025.2.4,Win32,60.24096386,,,,,,,,,,,,,,,,,,,,,,,,,,,,,,,,,,,,,,,,,,,,,,,,,,,,,,,,,,,,,,,,,,,,,,,,,,,,,,,,,,,,,,,,,,,,,,,,,,,,,,,,,,,,,,,,,,302.5331,302.9823,1.00E-04,0.4491,302.9823,302.9827,305.0324,2.05,,,,[],[],[],[],[],[],[],0,112,112,112,1,objects,lethality,1,0.45,0.15,1.9,images/Safe_LifeVest_Orange_Rect.png,images/Lethal_Pills_Orange_Rhom.png,images/Lethal_Poison_Blue_Rect.png,,
,,,,,,,,,,,,,,,,,,sert_test_1,2,2026-04-09_09h30.49.614,sert_artemis_2025.2.3,2025.2.4,Win32,60.24096386,,,,,,,,,,,,,,,,,,,,,,,,,,,,,,,,,,,,,,,,,,,,,,,,,,,,,,,,,,,,,,,,,,,,,,,,,,,,,,,,,,,,,,,,,,,,,,,,,,,,,,,,,,,,,,,,,,305.033,305.5822,0,0.5491,305.5823,305.5831,307.6323,2.05,,,,[],[],[],[],[],[],[],0,113,113,113,1,objects,lethality,2,0.55,0.15,1.9,images/Lethal_Pills_Blue_Oval.png,images/Safe_SeatBelt_Orange_Oval.png,images/Lethal_Gun_1_Orange_Rhom.png,,
,,,,,,,,,,,,,,,,,,sert_test_1,2,2026-04-09_09h30.49.614,sert_artemis_2025.2.3,2025.2.4,Win32,60.24096386,,,,,,,,,,,,,,,,,,,,,,,,,,,,,,,,,,,,,,,,,,,,,,,,,,,,,,,,,,,,,,,,,,,,,,,,,,,,,,,,,,,,,,,,,,,,,,,,,,,,,,,,,,,,,,,,,,307.633,308.0824,1.00E-04,0.4495,308.0825,308.0838,310.1323,2.05,,,,[],[],[],[],[],[],[],0,114,114,114,1,objects,lethality,3,0.45,0.15,1.9,images/Lethal_Razor_Blue_Oval.png,images/Lethal_Knife_Orange_Rhom.png,images/Safe_LifeVest_Blue_Rhom.png,,
,,,,,,,,,,,,,,,,,,sert_test_1,2,2026-04-09_09h30.49.614,sert_artemis_2025.2.3,2025.2.4,Win32,60.24096386,,,,,,,,,,,,,,,,,,,,,,,,,,,,,,,,,,,,,,,,,,,,,,,,,,,,,,,,,,,,,,,,,,,,,,,,,,,,,,,,,,,,,,,,,,,,,,,,,,,,,,,,,,,,,,,,,,310.1331,310.5821,0,0.449,310.5822,310.5829,312.6321,2.05,,,,[0.14444444444444443],[-0.05462962962962963],[1],[0],[0],[0.3999000000059709],"[""MiddleImage"",""RightImage""]",0,115,115,115,1,objects,lethality,1,0.45,0.15,1.9,images/Safe_SeatBelt_Blue_Rhom.png,images/Lethal_Pills_Blue_Rect.png,images/Lethal_Gun_1_Orange_Rhom.png,,
,,,,,,,,,,,,,,,,,,sert_test_1,2,2026-04-09_09h30.49.614,sert_artemis_2025.2.3,2025.2.4,Win32,60.24096386,,,,,,,,,,,,,,,,,,,,,,,,,,,,,,,,,,,,,,,,,,,,,,,,,,,,,,,,,,,,,,,,,,,,,,,,,,,,,,,,,,,,,,,,,,,,,,,,,,,,,,,,,,,,,,,,,,312.6326,312.9821,0,0.3495,312.9822,312.9829,315.0321,2.05,,,,[],[],[],[],[],[],[],0,116,116,116,1,objects,lethality,1,0.35,0.15,1.9,images/Safe_Extinguisher_Blue_Oval.png,images/Lethal_Poison_Blue_Rhom.png,images/Lethal_Noose_1_Orange_Oval.png,,
,,,,,,,,,,,,,,,,,,sert_test_1,2,2026-04-09_09h30.49.614,sert_artemis_2025.2.3,2025.2.4,Win32,60.24096386,,,,,,,,,,,,,,,,,,,,,,,,,,,,,,,,,,,,,,,,,,,,,,,,,,,,,,,,,,,,,,,,,,,,,,,,,,,,,,,,,,,,,,,,,,,,,,,,,,,,,,,,,,,,,,,,,,315.0324,315.482,0,0.4495,315.482,315.4824,317.5323,2.05,,,,[],[],[],[],[],[],[],0,117,117,117,1,objects,lethality,3,0.45,0.15,1.9,images/Lethal_Gun_1_Blue_Rect.png,images/Lethal_Razor_Orange_Oval.png,images/Safe_BearHug_Blue_Oval.png,,
,,,,,,,,,,,,,,,,,,sert_test_1,2,2026-04-09_09h30.49.614,sert_artemis_2025.2.3,2025.2.4,Win32,60.24096386,,,,,,,,,,,,,,,,,,,,,,,,,,,,,,,,,,,,,,,,,,,,,,,,,,,,,,,,,,,,,,,,,,,,,,,,,,,,,,,,,,,,,,,,,,,,,,,,,,,,,,,,,,,,,,,,,,317.533,317.9823,0,0.4492,317.9823,317.9832,320.0319,2.05,,,,[],[],[],[],[],[],[],0,118,118,118,1,objects,lethality,1,0.45,0.15,1.9,images/Safe_LifeVest_Orange_Rhom.png,images/Lethal_Pills_Blue_Rhom.png,images/Lethal_Knife_Orange_Rect.png,,
,,,,,,,,,,,,,,,,,,sert_test_1,2,2026-04-09_09h30.49.614,sert_artemis_2025.2.3,2025.2.4,Win32,60.24096386,,,,,,,,,,,,,,,,,,,,,,,,,,,,,,,,,,,,,,,,,,,,,,,,,,,,,,,,,,,,,,,,,,,,,,,,,,,,,,,,,,,,,,,,,,,,,,,,,,,,,,,,,,,,,,,,,,320.0323,320.5824,1.00E-04,0.5499,320.5824,320.5834,322.6319,2.05,,,,[],[],[],[],[],[],[],0,119,119,119,1,objects,lethality,3,0.55,0.15,1.9,images/Lethal_Noose_1_Blue_Oval.png,images/Lethal_Razor_Orange_Rhom.png,images/Safe_Buoy_Blue_Rhom.png,,
,,,,,,,,,,,,,,,,,,sert_test_1,2,2026-04-09_09h30.49.614,sert_artemis_2025.2.3,2025.2.4,Win32,60.24096386,,,,,,,,,,,,,,,,,,,,,,,,,,,,,,,,,,,,,,,,,,,,,,,,,,,,,,,,,,,,,,,,,,,,,,,,,,,,,,,,,,,,,,,,,,,,,,,,,,,,,,,,,,,,,,,,,,,,,,,,,,,,,,,,,,,,,,,,,,,,,,,,,,322.6321,326.6326