stimuli_1,correct_resp1,stimuli_2,correct_resp2,stimuli_4,correct_resp4,stimuli_5,correct_resp5,time_3,time_6,PGNGS_B1.thisRepN,PGNGS_B1.thisTrialN,PGNGS_B1.thisN,PGNGS_B1.thisIndex,PGNGS_B2.thisRepN,PGNGS_B2.thisTrialN,PGNGS_B2.thisN,PGNGS_B2.thisIndex,PGNGS_B3.thisRepN,PGNGS_B3.thisTrialN,PGNGS_B3.thisN,PGNGS_B3.thisIndex,PGNGS_B4.thisRepN,PGNGS_B4.thisTrialN,PGNGS_B4.thisN,PGNGS_B4.thisIndex,expStart,instruct_i1.started,instruct_i1.stopped,instruct_i2.started,instruct_i2.stopped,inst_t1_1.started,inst_t1_1.stopped,inst_t1_2.started,inst_t1_2.stopped,inst_t1_3.started,inst_t1_3.stopped,crosshair.started,crosshair.stopped,block1_resp.keys,block1_resp.corr,block1_resp.started,block1_resp.stopped,block1_stim.started,block1_stim.stopped,block1_resp.rt,fin_1t.started,fin_1t.stopped,inst_t2_1.started,inst_t2_1.stopped,inst_t2_2.started,inst_t2_2.stopped,inst_t2_3.started,inst_t2_3.stopped,inst_t2_4.started,inst_t2_4.stopped,inst_t2_5.started,inst_t2_5.stopped,block2_resp.keys,block2_resp.corr,block2_resp.started,block2_resp.stopped,block2_stim.started,block2_stim.stopped,block2_resp.rt,fin_2t.started,fin_2t.stopped,inst_t4_1.started,inst_t4_1.stopped,inst_t4_2.started,inst_t4_2.stopped,inst_t4_3.started,inst_t4_3.stopped,block4_resp.keys,block4_resp.corr,block4_resp.started,block4_resp.stopped,block4_stim.started,block4_stim.stopped,block4_resp.rt,fin_4t.started,fin_4t.stopped,inst_t5_1.started,inst_t5_1.stopped,inst_t5_2.started,inst_t5_2.stopped,inst_t5_3.started,inst_t5_3.stopped,block5_resp.keys,block5_resp.corr,block5_resp.started,block5_resp.stopped,block5_stim.started,block5_stim.stopped,block5_resp.rt,participant,session,date,expName,psychopyVersion,frameRate
,,,,,,,,,,,,,,,,,,,,,,,,,,21.6228601,,,,,,,,,,,,,,,,,,,,,,,,,,,,,,,,,,,,,,,,,,,,,,,,,,,,,,,,,,,,,,,,,,,,,example1,1,2025-01-01_00h00.00.000,PGNGS_RST_750,2022.1.4,60.01619236
L_b.bmp,None,L_n.bmp,None,L_m.bmp,None,L_v.bmp,None,0.75,0.75,0,0,0,0,,,,,,,,,,,,,,232.7536352,240.7530622,240.8366043,None,250.6039655,262.6025724,262.6869058,270.6863568,270.7872386,None,277.3692849,None,None,1,279.0692885,None,279.0692885,None,,,,,,,,,,,,,,,,,,,,,,,,,,,,,,,,,,,,,,,,,,,,,,,,,,,example1,1,2025-01-01_00h00.00.000,PGNGS_RST_750,2022.1.4,60.01619236
L_k.bmp,None,L_q.bmp,None,L_b.bmp,None,L_c.bmp,None,0.75,0.75,0,1,1,1,,,,,,,,,,,,,,,,,,,,,,,,,,None,1,279.1367551,None,279.1367551,None,,,,,,,,,,,,,,,,,,,,,,,,,,,,,,,,,,,,,,,,,,,,,,,,,,,example1,1,2025-01-01_00h00.00.000,PGNGS_RST_750,2022.1.4,60.01619236
L_s.bmp,n,L_f.bmp,None,L_s.bmp,n,L_j.bmp,None,0.75,0.75,0,2,2,2,,,,,,,,,,,,,,,,,,,,,,,,,,None,0,279.8874652,None,279.8874652,None,,,,,,,,,,,,,,,,,,,,,,,,,,,,,,,,,,,,,,,,,,,,,,,,,,,example1,1,2025-01-01_00h00.00.000,PGNGS_RST_750,2022.1.4,60.01619236
L_g.bmp,None,L_r.bmp,n,L_b.bmp,None,L_k.bmp,None,0.75,0.75,0,3,3,3,,,,,,,,,,,,,,,,,,,,,,,,,,n,0,280.6370066,None,280.6370066,None,0.1363665,,,,,,,,,,,,,,,,,,,,,,,,,,,,,,,,,,,,,,,,,,,,,,,,,,example1,1,2025-01-01_00h00.00.000,PGNGS_RST_750,2022.1.4,60.01619236
L_j.bmp,None,L_p.bmp,None,L_d.bmp,None,L_w.bmp,None,0.75,0.75,0,4,4,4,,,,,,,,,,,,,,,,,,,,,,,,,,None,1,281.3875953,None,281.3875953,None,,,,,,,,,,,,,,,,,,,,,,,,,,,,,,,,,,,,,,,,,,,,,,,,,,,example1,1,2025-01-01_00h00.00.000,PGNGS_RST_750,2022.1.4,60.01619236
L_b.bmp,None,L_k.bmp,None,L_v.bmp,None,L_t.bmp,n,0.75,0.75,0,5,5,5,,,,,,,,,,,,,,,,,,,,,,,,,,None,1,282.1374113,None,282.1374113,None,,,,,,,,,,,,,,,,,,,,,,,,,,,,,,,,,,,,,,,,,,,,,,,,,,,example1,1,2025-01-01_00h00.00.000,PGNGS_RST_750,2022.1.4,60.01619236
L_r.bmp,n,L_m.bmp,None,L_b.bmp,None,L_f.bmp,None,0.75,0.75,0,6,6,6,,,,,,,,,,,,,,,,,,,,,,,,,,n,1,282.8877448,None,282.8877448,None,0.4134979,,,,,,,,,,,,,,,,,,,,,,,,,,,,,,,,,,,,,,,,,,,,,,,,,,example1,1,2025-01-01_00h00.00.000,PGNGS_RST_750,2022.1.4,60.01619236
L_j.bmp,None,L_f.bmp,None,L_n.bmp,None,L_m.bmp,None,0.75,0.75,0,7,7,7,,,,,,,,,,,,,,,,,,,,,,,,,,None,1,283.6373785,None,283.6373785,None,,,,,,,,,,,,,,,,,,,,,,,,,,,,,,,,,,,,,,,,,,,,,,,,,,,example1,1,2025-01-01_00h00.00.000,PGNGS_RST_750,2022.1.4,60.01619236
L_b.bmp,None,L_k.bmp,None,L_c.bmp,None,L_g.bmp,None,0.75,0.75,0,8,8,8,,,,,,,,,,,,,,,,,,,,,,,,,,None,1,284.3876755,None,284.3876755,None,,,,,,,,,,,,,,,,,,,,,,,,,,,,,,,,,,,,,,,,,,,,,,,,,,,example1,1,2025-01-01_00h00.00.000,PGNGS_RST_750,2022.1.4,60.01619236
L_n.bmp,None,L_s.bmp,n,L_p.bmp,None,L_l.bmp,None,0.75,0.75,0,9,9,9,,,,,,,,,,,,,,,,,,,,,,,,,,None,1,285.1373158,None,285.1373158,None,,,,,,,,,,,,,,,,,,,,,,,,,,,,,,,,,,,,,,,,,,,,,,,,,,,example1,1,2025-01-01_00h00.00.000,PGNGS_RST_750,2022.1.4,60.01619236
L_l.bmp,None,L_w.bmp,None,L_f.bmp,None,L_w.bmp,None,0.75,0.75,0,10,10,10,,,,,,,,,,,,,,,,,,,,,,,,,,None,1,285.8877892,None,285.8877892,None,,,,,,,,,,,,,,,,,,,,,,,,,,,,,,,,,,,,,,,,,,,,,,,,,,,example1,1,2025-01-01_00h00.00.000,PGNGS_RST_750,2022.1.4,60.01619236
L_j.bmp,None,L_j.bmp,None,L_p.bmp,None,L_h.bmp,None,0.75,0.75,0,11,11,11,,,,,,,,,,,,,,,,,,,,,,,,,,None,1,286.63743,None,286.63743,None,,,,,,,,,,,,,,,,,,,,,,,,,,,,,,,,,,,,,,,,,,,,,,,,,,,example1,1,2025-01-01_00h00.00.000,PGNGS_RST_750,2022.1.4,60.01619236
L_h.bmp,None,L_p.bmp,None,L_t.bmp,n,L_w.bmp,None,0.75,0.25,0,12,12,12,,,,,,,,,,,,,,,,,,,,,,,,,,None,1,287.387212,None,287.387212,None,,,,,,,,,,,,,,,,,,,,,,,,,,,,,,,,,,,,,,,,,,,,,,,,,,,example1,1,2025-01-01_00h00.00.000,PGNGS_RST_750,2022.1.4,60.01619236
L_r.bmp,n,L_g.bmp,None,L_q.bmp,None,L_g.bmp,None,0.75,0.5,0,13,13,13,,,,,,,,,,,,,,,,,,,,,,,,,,n,1,288.1374522,None,288.1374522,None,0.3954179,,,,,,,,,,,,,,,,,,,,,,,,,,,,,,,,,,,,,,,,,,,,,,,,,,example1,1,2025-01-01_00h00.00.000,PGNGS_RST_750,2022.1.4,60.01619236
L_q.bmp,None,L_q.bmp,None,L_p.bmp,None,L_m.bmp,None,0.75,0.75,0,14,14,14,,,,,,,,,,,,,,,,,,,,,,,,,,None,1,288.8879096,None,288.8879096,None,,,,,,,,,,,,,,,,,,,,,,,,,,,,,,,,,,,,,,,,,,,,,,,,,,,example1,1,2025-01-01_00h00.00.000,PGNGS_RST_750,2022.1.4,60.01619236
L_b.bmp,None,L_w.bmp,None,L_m.bmp,None,L_w.bmp,None,0.75,0.75,0,15,15,15,,,,,,,,,,,,,,,,,,,,,,,,,,None,1,289.6369841,None,289.6369841,None,,,,,,,,,,,,,,,,,,,,,,,,,,,,,,,,,,,,,,,,,,,,,,,,,,,example1,1,2025-01-01_00h00.00.000,PGNGS_RST_750,2022.1.4,60.01619236
L_g.bmp,None,L_s.bmp,None,L_s.bmp,n,L_h.bmp,None,0.25,0.75,0,16,16,16,,,,,,,,,,,,,,,,,,,,,,,,,,None,1,290.3872283,None,290.3872283,None,,,,,,,,,,,,,,,,,,,,,,,,,,,,,,,,,,,,,,,,,,,,,,,,,,,example1,1,2025-01-01_00h00.00.000,PGNGS_RST_750,2022.1.4,60.01619236
L_r.bmp,n,L_f.bmp,None,L_h.bmp,None,L_r.bmp,n,0.5,0.75,0,17,17,17,,,,,,,,,,,,,,,,,,,,,,,,,,n,1,291.1371269,None,291.1371269,None,0.4369338,,,,,,,,,,,,,,,,,,,,,,,,,,,,,,,,,,,,,,,,,,,,,,,,,,example1,1,2025-01-01_00h00.00.000,PGNGS_RST_750,2022.1.4,60.01619236
L_f.bmp,None,L_m.bmp,None,L_b.bmp,None,L_j.bmp,None,0.75,0.75,0,18,18,18,,,,,,,,,,,,,,,,,,,,,,,,,,None,1,291.8877776,None,291.8877776,None,,,,,,,,,,,,,,,,,,,,,,,,,,,,,,,,,,,,,,,,,,,,,,,,,,,example1,1,2025-01-01_00h00.00.000,PGNGS_RST_750,2022.1.4,60.01619236
L_g.bmp,None,L_j.bmp,None,L_m.bmp,None,L_k.bmp,None,0.75,0.75,0,19,19,19,,,,,,,,,,,,,,,,,,,,,,,,,,None,1,292.6372262,None,292.6372262,None,,,,,,,,,,,,,,,,,,,,,,,,,,,,,,,,,,,,,,,,,,,,,,,,,,,example1,1,2025-01-01_00h00.00.000,PGNGS_RST_750,2022.1.4,60.01619236
L_v.bmp,None,L_k.bmp,None,L_s.bmp,n,L_r.bmp,None,0.75,0.75,0,20,20,20,,,,,,,,,,,,,,,,,,,,,,,,,,None,1,293.387283,None,293.387283,None,,,,,,,,,,,,,,,,,,,,,,,,,,,,,,,,,,,,,,,,,,,,,,,,,,,example1,1,2025-01-01_00h00.00.000,PGNGS_RST_750,2022.1.4,60.01619236
L_f.bmp,None,L_r.bmp,n,L_q.bmp,None,L_k.bmp,None,0.75,0.75,0,21,21,21,,,,,,,,,,,,,,,,,,,,,,,,,,None,1,294.1373385,None,294.1373385,None,,,,,,,,,,,,,,,,,,,,,,,,,,,,,,,,,,,,,,,,,,,,,,,,,,,example1,1,2025-01-01_00h00.00.000,PGNGS_RST_750,2022.1.4,60.01619236
L_g.bmp,None,L_k.bmp,None,L_v.bmp,None,L_f.bmp,None,0.75,0.75,0,22,22,22,,,,,,,,,,,,,,,,,,,,,,,,,,None,1,294.8876487,None,294.8876487,None,,,,,,,,,,,,,,,,,,,,,,,,,,,,,,,,,,,,,,,,,,,,,,,,,,,example1,1,2025-01-01_00h00.00.000,PGNGS_RST_750,2022.1.4,60.01619236
L_h.bmp,None,L_f.bmp,None,L_l.bmp,None,L_l.bmp,None,0.75,0.75,0,23,23,23,,,,,,,,,,,,,,,,,,,,,,,,,,None,1,295.637605,None,295.637605,None,,,,,,,,,,,,,,,,,,,,,,,,,,,,,,,,,,,,,,,,,,,,,,,,,,,example1,1,2025-01-01_00h00.00.000,PGNGS_RST_750,2022.1.4,60.01619236
L_b.bmp,None,L_l.bmp,None,L_s.bmp,n,L_f.bmp,None,0.75,0.75,0,24,24,24,,,,,,,,,,,,,,,,,,,,,,,,,,None,1,296.3879308,None,296.3879308,None,,,,,,,,,,,,,,,,,,,,,,,,,,,,,,,,,,,,,,,,,,,,,,,,,,,example1,1,2025-01-01_00h00.00.000,PGNGS_RST_750,2022.1.4,60.01619236
L_v.bmp,None,L_s.bmp,n,L_j.bmp,None,L_r.bmp,None,0.75,0.75,0,25,25,25,,,,,,,,,,,,,,,,,,,,,,,,,,None,1,297.1372559,None,297.1372559,None,,,,,,,,,,,,,,,,,,,,,,,,,,,,,,,,,,,,,,,,,,,,,,,,,,,example1,1,2025-01-01_00h00.00.000,PGNGS_RST_750,2022.1.4,60.01619236
L_c.bmp,None,L_n.bmp,None,L_g.bmp,None,L_n.bmp,None,0.75,0.75,0,26,26,26,,,,,,,,,,,,,,,,,,,,,,,,,,None,1,297.8877445,None,297.8877445,None,,,,,,,,,,,,,,,,,,,,,,,,,,,,,,,,,,,,,,,,,,,,,,,,,,,example1,1,2025-01-01_00h00.00.000,PGNGS_RST_750,2022.1.4,60.01619236
L_l.bmp,None,L_d.bmp,None,L_f.bmp,None,L_d.bmp,None,0.75,0.4,0,27,27,27,,,,,,,,,,,,,,,,,,,,,,,,,,None,1,298.6375316,None,298.6375316,None,,,,,,,,,,,,,,,,,,,,,,,,,,,,,,,,,,,,,,,,,,,,,,,,,,,example1,1,2025-01-01_00h00.00.000,PGNGS_RST_750,2022.1.4,60.01619236
L_m.bmp,None,L_r.bmp,n,L_t.bmp,n,L_s.bmp,n,0.75,0.35,0,28,28,28,,,,,,,,,,,,,,,,,,,,,,,,,,None,1,299.3872046,None,299.3872046,None,,,,,,,,,,,,,,,,,,,,,,,,,,,,,,,,,,,,,,,,,,,,,,,,,,,example1,1,2025-01-01_00h00.00.000,PGNGS_RST_750,2022.1.4,60.01619236
L_n.bmp,None,L_v.bmp,None,L_d.bmp,None,L_v.bmp,None,0.75,0.75,0,29,29,29,,,,,,,,,,,,,,,,,,,,,,,,,,None,1,300.1374044,None,300.1374044,None,,,,,,,,,,,,,,,,,,,,,,,,,,,,,,,,,,,,,,,,,,,,,,,,,,,example1,1,2025-01-01_00h00.00.000,PGNGS_RST_750,2022.1.4,60.01619236
L_p.bmp,None,L_f.bmp,None,L_c.bmp,None,L_f.bmp,None,0.75,0.75,0,30,30,30,,,,,,,,,,,,,,,,,,,,,,,,,,None,1,300.8876314,None,300.8876314,None,,,,,,,,,,,,,,,,,,,,,,,,,,,,,,,,,,,,,,,,,,,,,,,,,,,example1,1,2025-01-01_00h00.00.000,PGNGS_RST_750,2022.1.4,60.01619236
L_v.bmp,None,L_w.bmp,None,L_n.bmp,None,L_w.bmp,None,0.75,0.75,0,31,31,31,,,,,,,,,,,,,,,,,,,,,,,,,,None,1,301.6374345,None,301.6374345,None,,,,,,,,,,,,,,,,,,,,,,,,,,,,,,,,,,,,,,,,,,,,,,,,,,,example1,1,2025-01-01_00h00.00.000,PGNGS_RST_750,2022.1.4,60.01619236
L_p.bmp,None,L_q.bmp,None,L_h.bmp,None,L_q.bmp,None,0.75,0.75,0,32,32,32,,,,,,,,,,,,,,,,,,,,,,,,,,None,1,302.3877137,None,302.3877137,None,,,,,,,,,,,,,,,,,,,,,,,,,,,,,,,,,,,,,,,,,,,,,,,,,,,example1,1,2025-01-01_00h00.00.000,PGNGS_RST_750,2022.1.4,60.01619236
L_l.bmp,None,L_k.bmp,None,L_g.bmp,None,L_k.bmp,None,0.75,0.75,0,33,33,33,,,,,,,,,,,,,,,,,,,,,,,,,,None,1,303.1372995,None,303.1372995,None,,,,,,,,,,,,,,,,,,,,,,,,,,,,,,,,,,,,,,,,,,,,,,,,,,,example1,1,2025-01-01_00h00.00.000,PGNGS_RST_750,2022.1.4,60.01619236
L_r.bmp,n,L_b.bmp,None,L_l.bmp,None,L_b.bmp,None,0.75,0.75,0,34,34,34,,,,,,,,,,,,,,,,,,,,,,,,,,n,1,303.8879857,None,303.8879857,None,0.4052646,,,,,,,,,,,,,,,,,,,,,,,,,,,,,,,,,,,,,,,,,,,,,,,,,,example1,1,2025-01-01_00h00.00.000,PGNGS_RST_750,2022.1.4,60.01619236
L_q.bmp,None,L_j.bmp,None,L_b.bmp,None,L_j.bmp,None,0.75,0.75,0,35,35,35,,,,,,,,,,,,,,,,,,,,,,,,,,None,1,304.6376293,None,304.6376293,None,,,,,,,,,,,,,,,,,,,,,,,,,,,,,,,,,,,,,,,,,,,,,,,,,,,example1,1,2025-01-01_00h00.00.000,PGNGS_RST_750,2022.1.4,60.01619236
L_g.bmp,None,L_k.bmp,None,L_t.bmp,n,L_l.bmp,None,0.75,0.3,0,36,36,36,,,,,,,,,,,,,,,,,,,,,,,,,,None,1,305.38729,None,305.38729,None,,,,,,,,,,,,,,,,,,,,,,,,,,,,,,,,,,,,,,,,,,,,,,,,,,,example1,1,2025-01-01_00h00.00.000,PGNGS_RST_750,2022.1.4,60.01619236
L_r.bmp,n,L_b.bmp,None,L_k.bmp,None,L_b.bmp,None,0.75,0.45,0,37,37,37,,,,,,,,,,,,,,,,,,,,,,,,,,n,1,306.1373216,None,306.1373216,None,0.4604842,,,,,,,,,,,,,,,,,,,,,,,,,,,,,,,,,,,,,,,,,,,,,,,,,,example1,1,2025-01-01_00h00.00.000,PGNGS_RST_750,2022.1.4,60.01619236
L_b.bmp,None,L_r.bmp,None,L_j.bmp,None,L_t.bmp,n,0.75,0.75,0,38,38,38,,,,,,,,,,,,,,,,,,,,,,,,,,None,1,306.8879237,None,306.8879237,None,,,,,,,,,,,,,,,,,,,,,,,,,,,,,,,,,,,,,,,,,,,,,,,,,,,example1,1,2025-01-01_00h00.00.000,PGNGS_RST_750,2022.1.4,60.01619236
L_j.bmp,None,L_q.bmp,None,L_f.bmp,None,L_q.bmp,None,0.4,0.75,0,39,39,39,,,,,,,,,,,,,,,,,,,,,,,,,,None,1,307.6375461,None,307.6375461,None,,,,,,,,,,,,,,,,,,,,,,,,,,,,,,,,,,,,,,,,,,,,,,,,,,,example1,1,2025-01-01_00h00.00.000,PGNGS_RST_750,2022.1.4,60.01619236
L_g.bmp,None,L_m.bmp,None,L_g.bmp,None,L_m.bmp,None,0.35,0.75,0,40,40,40,,,,,,,,,,,,,,,,,,,,,,,,,,None,1,308.3873223,None,308.3873223,None,,,,,,,,,,,,,,,,,,,,,,,,,,,,,,,,,,,,,,,,,,,,,,,,,,,example1,1,2025-01-01_00h00.00.000,PGNGS_RST_750,2022.1.4,60.01619236
L_s.bmp,n,L_q.bmp,None,L_h.bmp,None,L_q.bmp,None,0.75,0.75,0,41,41,41,,,,,,,,,,,,,,,,,,,,,,,,,,n,1,309.1371662,None,309.1371662,None,0.5325652,,,,,,,,,,,,,,,,,,,,,,,,,,,,,,,,,,,,,,,,,,,,,,,,,,example1,1,2025-01-01_00h00.00.000,PGNGS_RST_750,2022.1.4,60.01619236
L_v.bmp,None,L_f.bmp,None,L_b.bmp,None,L_j.bmp,None,0.75,0.75,0,42,42,42,,,,,,,,,,,,,,,,,,,,,,,,,,None,1,309.8879961,None,309.8879961,None,,,,,,,,,,,,,,,,,,,,,,,,,,,,,,,,,,,,,,,,,,,,,,,,,,,example1,1,2025-01-01_00h00.00.000,PGNGS_RST_750,2022.1.4,60.01619236
L_m.bmp,None,L_j.bmp,None,L_v.bmp,None,L_m.bmp,None,0.75,0.75,0,43,43,43,,,,,,,,,,,,,,,,,,,,,,,,,,None,1,310.6370796,None,310.6370796,None,,,,,,,,,,,,,,,,,,,,,,,,,,,,,,,,,,,,,,,,,,,,,,,,,,,example1,1,2025-01-01_00h00.00.000,PGNGS_RST_750,2022.1.4,60.01619236
L_b.bmp,None,L_m.bmp,None,L_b.bmp,None,L_b.bmp,None,0.75,0.75,0,44,44,44,,,,,,,,,,,,,,,,,,,,,,,,,,None,1,311.3874704,None,311.3874704,None,,,,,,,,,,,,,,,,,,,,,,,,,,,,,,,,,,,,,,,,,,,,,,,,,,,example1,1,2025-01-01_00h00.00.000,PGNGS_RST_750,2022.1.4,60.01619236
L_s.bmp,n,L_b.bmp,None,L_r.bmp,n,L_m.bmp,None,0.75,0.75,0,45,45,45,,,,,,,,,,,,,,,,,,,,,,,,,,n,1,312.1374752,None,312.1374752,None,0.4601407,,,,,,,,,,,,,,,,,,,,,,,,,,,,,,,,,,,,,,,,,,,,,,,,,,example1,1,2025-01-01_00h00.00.000,PGNGS_RST_750,2022.1.4,60.01619236
L_b.bmp,None,L_j.bmp,None,L_b.bmp,None,L_d.bmp,None,0.75,0.75,0,46,46,46,,,,,,,,,,,,,,,,,,,,,,,,,,None,1,312.8880416,None,312.8880416,None,,,,,,,,,,,,,,,,,,,,,,,,,,,,,,,,,,,,,,,,,,,,,,,,,,,example1,1,2025-01-01_00h00.00.000,PGNGS_RST_750,2022.1.4,60.01619236
L_d.bmp,None,L_m.bmp,None,L_n.bmp,None,L_n.bmp,None,0.75,0.75,0,47,47,47,,,,,,,,,,,,,,,,,,,,,,,,,,None,1,313.6376908,None,313.6376908,None,,,,,,,,,,,,,,,,,,,,,,,,,,,,,,,,,,,,,,,,,,,,,,,,,,,example1,1,2025-01-01_00h00.00.000,PGNGS_RST_750,2022.1.4,60.01619236
L_v.bmp,None,L_n.bmp,None,L_l.bmp,None,L_l.bmp,None,0.75,0.75,0,48,48,48,,,,,,,,,,,,,,,,,,,,,,,,,,None,1,314.3874038,None,314.3874038,None,,,,,,,,,,,,,,,,,,,,,,,,,,,,,,,,,,,,,,,,,,,,,,,,,,,example1,1,2025-01-01_00h00.00.000,PGNGS_RST_750,2022.1.4,60.01619236
L_b.bmp,None,L_f.bmp,None,L_j.bmp,None,L_j.bmp,None,0.75,0.75,0,49,49,49,,,,,,,,,,,,,,,,,,,,,,,,,,None,1,315.1374577,None,315.1374577,None,,,,,,,,,,,,,,,,,,,,,,,,,,,,,,,,,,,,,,,,,,,,,,,,,,,example1,1,2025-01-01_00h00.00.000,PGNGS_RST_750,2022.1.4,60.01619236
L_n.bmp,None,L_m.bmp,None,L_h.bmp,None,L_h.bmp,None,0.75,0.75,0,50,50,50,,,,,,,,,,,,,,,,,,,,,,,,,,None,1,315.8880193,None,315.8880193,None,,,,,,,,,,,,,,,,,,,,,,,,,,,,,,,,,,,,,,,,,,,,,,,,,,,example1,1,2025-01-01_00h00.00.000,PGNGS_RST_750,2022.1.4,60.01619236
L_c.bmp,None,L_p.bmp,None,L_t.bmp,n,L_s.bmp,n,0.75,0.75,0,51,51,51,,,,,,,,,,,,,,,,,,,,,,,,,,None,1,316.637342,None,316.637342,None,,,,,,,,,,,,,,,,,,,,,,,,,,,,,,,,,,,,,,,,,,,,,,,,,,,example1,1,2025-01-01_00h00.00.000,PGNGS_RST_750,2022.1.4,60.01619236
L_p.bmp,None,L_l.bmp,None,L_q.bmp,None,L_q.bmp,None,0.75,0.75,0,52,52,52,,,,,,,,,,,,,,,,,,,,,,,,,,None,1,317.387273,None,317.387273,None,,,,,,,,,,,,,,,,,,,,,,,,,,,,,,,,,,,,,,,,,,,,,,,,,,,example1,1,2025-01-01_00h00.00.000,PGNGS_RST_750,2022.1.4,60.01619236
L_f.bmp,None,L_h.bmp,None,L_b.bmp,None,L_b.bmp,None,0.75,0.75,0,53,53,53,,,,,,,,,,,,,,,,,,,,,,,,,,None,1,318.1373614,None,318.1373614,None,,,,,,,,,,,,,,,,,,,,,,,,,,,,,,,,,,,,,,,,,,,,,,,,,,,example1,1,2025-01-01_00h00.00.000,PGNGS_RST_750,2022.1.4,60.01619236
L_p.bmp,None,L_s.bmp,n,L_g.bmp,None,L_g.bmp,None,0.75,0.75,0,54,54,54,,,,,,,,,,,,,,,,,,,,,,,,,,None,1,318.8876255,None,318.8876255,None,,,,,,,,,,,,,,,,,,,,,,,,,,,,,,,,,,,,,,,,,,,,,,,,,,,example1,1,2025-01-01_00h00.00.000,PGNGS_RST_750,2022.1.4,60.01619236
L_r.bmp,n,L_v.bmp,None,L_t.bmp,n,L_t.bmp,n,0.75,0.75,0,55,55,55,,,,,,,,,,,,,,,,,,,,,,,,,,n,1,319.6373956,None,319.6373956,None,0.4170492,,,,,,,,,,,,,,,,,,,,,,,,,,,,,,,,,,,,,,,,,,,,,,,,,,example1,1,2025-01-01_00h00.00.000,PGNGS_RST_750,2022.1.4,60.01619236
L_q.bmp,None,L_h.bmp,None,L_g.bmp,None,L_g.bmp,None,0.75,0.75,0,56,56,56,,,,,,,,,,,,,,,,,,,,,,,,,,None,1,320.3873142,None,320.3873142,None,,,,,,,,,,,,,,,,,,,,,,,,,,,,,,,,,,,,,,,,,,,,,,,,,,,example1,1,2025-01-01_00h00.00.000,PGNGS_RST_750,2022.1.4,60.01619236
L_f.bmp,None,L_k.bmp,None,L_k.bmp,None,L_l.bmp,None,0.75,0.75,0,57,57,57,,,,,,,,,,,,,,,,,,,,,,,,,,None,1,321.1374181,None,321.1374181,None,,,,,,,,,,,,,,,,,,,,,,,,,,,,,,,,,,,,,,,,,,,,,,,,,,,example1,1,2025-01-01_00h00.00.000,PGNGS_RST_750,2022.1.4,60.01619236
L_s.bmp,n,L_r.bmp,n,L_f.bmp,None,L_r.bmp,n,0.75,0.75,0,58,58,58,,,,,,,,,,,,,,,,,,,,,,,,,,n,1,321.8872681,None,321.8872681,None,0.4700608,,,,,,,,,,,,,,,,,,,,,,,,,,,,,,,,,,,,,,,,,,,,,,,,,,example1,1,2025-01-01_00h00.00.000,PGNGS_RST_750,2022.1.4,60.01619236
L_m.bmp,None,L_q.bmp,None,L_l.bmp,None,L_f.bmp,None,0.75,0.75,0,59,59,59,,,,,,,,,,,,,,,,,,,,,,,,,,None,1,322.6372487,None,322.6372487,None,,,,,,,,,,,,,,,,,,,,,,,,,,,,,,,,,,,,,,,,,,,,,,,,,,,example1,1,2025-01-01_00h00.00.000,PGNGS_RST_750,2022.1.4,60.01619236
L_h.bmp,None,L_d.bmp,None,L_r.bmp,n,L_k.bmp,None,0.75,0.75,0,60,60,60,,,,,,,,,,,,,,,,,,,,,,,,,,None,1,323.3874577,None,323.3874577,None,,,,,,,,,,,,,,,,,,,,,,,,,,,,,,,,,,,,,,,,,,,,,,,,,,,example1,1,2025-01-01_00h00.00.000,PGNGS_RST_750,2022.1.4,60.01619236
L_b.bmp,None,L_m.bmp,None,L_v.bmp,None,L_v.bmp,None,0.3,0.75,0,61,61,61,,,,,,,,,,,,,,,,,,,,,,,,,,None,1,324.1374151,None,324.1374151,None,,,,,,,,,,,,,,,,,,,,,,,,,,,,,,,,,,,,,,,,,,,,,,,,,,,example1,1,2025-01-01_00h00.00.000,PGNGS_RST_750,2022.1.4,60.01619236
L_m.bmp,None,L_j.bmp,None,L_c.bmp,None,L_c.bmp,None,0.45,0.75,0,62,62,62,,,,,,,,,,,,,,,,,,,,,,,,,,None,1,324.8879043,None,324.8879043,None,,,,,,,,,,,,,,,,,,,,,,,,,,,,,,,,,,,,,,,,,,,,,,,,,,,example1,1,2025-01-01_00h00.00.000,PGNGS_RST_750,2022.1.4,60.01619236
L_q.bmp,None,L_f.bmp,None,L_l.bmp,None,L_l.bmp,None,0.75,0.4,0,63,63,63,,,,,,,,,,,,,,,,,,,,,,,,,,None,1,325.6373606,None,325.6373606,None,,,,,,,,,,,,,,,,,,,,,,,,,,,,,,,,,,,,,,,,,,,,,,,,,,,example1,1,2025-01-01_00h00.00.000,PGNGS_RST_750,2022.1.4,60.01619236
L_s.bmp,n,L_d.bmp,None,L_m.bmp,None,L_m.bmp,None,0.75,0.35,0,64,64,64,,,,,,,,,,,,,,,,,,,,,,,,,,n,1,326.3873646,None,326.3873646,None,0.4013961,,,,,,,,,,,,,,,,,,,,,,,,,,,,,,,,,,,,,,,,,,,,,,,,,,example1,1,2025-01-01_00h00.00.000,PGNGS_RST_750,2022.1.4,60.01619236
L_v.bmp,None,L_b.bmp,None,L_n.bmp,None,L_n.bmp,None,0.75,0.75,0,65,65,65,,,,,,,,,,,,,,,,,,,,,,,,,,None,1,327.1371071,None,327.1371071,None,,,,,,,,,,,,,,,,,,,,,,,,,,,,,,,,,,,,,,,,,,,,,,,,,,,example1,1,2025-01-01_00h00.00.000,PGNGS_RST_750,2022.1.4,60.01619236
L_l.bmp,None,L_p.bmp,None,L_r.bmp,n,L_p.bmp,None,0.75,0.75,0,66,66,66,,,,,,,,,,,,,,,,,,,,,,,,,,None,1,327.8878652,None,327.8878652,None,,,,,,,,,,,,,,,,,,,,,,,,,,,,,,,,,,,,,,,,,,,,,,,,,,,example1,1,2025-01-01_00h00.00.000,PGNGS_RST_750,2022.1.4,60.01619236
L_s.bmp,n,L_w.bmp,None,L_f.bmp,None,L_v.bmp,None,0.75,0.75,0,67,67,67,,,,,,,,,,,,,,,,,,,,,,,,,,n,1,328.6373382,None,328.6373382,None,0.3762742,,,,,,,,,,,,,,,,,,,,,,,,,,,,,,,,,,,,,,,,,,,,,,,,,,example1,1,2025-01-01_00h00.00.000,PGNGS_RST_750,2022.1.4,60.01619236
L_j.bmp,None,L_d.bmp,None,L_p.bmp,None,L_p.bmp,None,0.75,0.75,0,68,68,68,,,,,,,,,,,,,,,,,,,,,,,,,,None,1,329.3874168,None,329.3874168,None,,,,,,,,,,,,,,,,,,,,,,,,,,,,,,,,,,,,,,,,,,,,,,,,,,,example1,1,2025-01-01_00h00.00.000,PGNGS_RST_750,2022.1.4,60.01619236
L_g.bmp,None,L_f.bmp,None,L_l.bmp,None,L_l.bmp,None,0.75,0.75,0,69,69,69,,,,,,,,,,,,,,,,,,,,,,,,,,None,1,330.1373321,None,330.1373321,None,,,,,,,,,,,,,,,,,,,,,,,,,,,,,,,,,,,,,,,,,,,,,,,,,,,example1,1,2025-01-01_00h00.00.000,PGNGS_RST_750,2022.1.4,60.01619236
L_f.bmp,None,L_r.bmp,None,L_r.bmp,n,L_r.bmp,None,0.75,0.75,0,70,70,70,,,,,,,,,,,,,,,,,,,,,,,,,,None,1,330.8878027,None,330.8878027,None,,,,,,,,,,,,,,,,,,,,,,,,,,,,,,,,,,,,,,,,,,,,,,,,,,,example1,1,2025-01-01_00h00.00.000,PGNGS_RST_750,2022.1.4,60.01619236
L_d.bmp,None,L_p.bmp,None,L_q.bmp,None,L_q.bmp,None,0.75,0.75,0,71,71,71,,,,,,,,,,,,,,,,,,,,,,,,,,None,1,331.6370695,None,331.6370695,None,,,,,,,,,,,,,,,,,,,,,,,,,,,,,,,,,,,,,,,,,,,,,,,,,,,example1,1,2025-01-01_00h00.00.000,PGNGS_RST_750,2022.1.4,60.01619236
L_r.bmp,n,L_d.bmp,None,L_g.bmp,None,L_f.bmp,None,0.75,0.75,0,72,72,72,,,,,,,,,,,,,,,,,,,,,,,,,,n,1,332.3874991,None,332.3874991,None,0.4011396,,,,,,,,,,,,,,,,,,,,,,,,,,,,,,,,,,,,,,,,,,,,,,,,,,example1,1,2025-01-01_00h00.00.000,PGNGS_RST_750,2022.1.4,60.01619236
L_c.bmp,None,L_l.bmp,None,L_r.bmp,n,L_m.bmp,None,0.75,0.75,0,73,73,73,,,,,,,,,,,,,,,,,,,,,,,,,,None,1,333.1373411,None,333.1373411,None,,,,,,,,,,,,,,,,,,,,,,,,,,,,,,,,,,,,,,,,,,,,,,,,,,,example1,1,2025-01-01_00h00.00.000,PGNGS_RST_750,2022.1.4,60.01619236
L_n.bmp,None,L_h.bmp,None,L_b.bmp,None,L_p.bmp,None,0.75,0.75,0,74,74,74,,,,,,,,,,,,,,,,,,,,,,,,,,None,1,333.8876526,None,333.8876526,None,,,,,,,,,,,,,,,,,,,,,,,,,,,,,,,,,,,,,,,,,,,,,,,,,,,example1,1,2025-01-01_00h00.00.000,PGNGS_RST_750,2022.1.4,60.01619236
L_h.bmp,None,L_l.bmp,None,L_j.bmp,None,L_l.bmp,None,0.75,0.75,0,75,75,75,,,,,,,,,,,,,,,,,,,,,,,,,,None,1,334.6372043,None,334.6372043,None,,,,,,,,,,,,,,,,,,,,,,,,,,,,,,,,,,,,,,,,,,,,,,,,,,,example1,1,2025-01-01_00h00.00.000,PGNGS_RST_750,2022.1.4,60.01619236
L_g.bmp,None,L_m.bmp,None,L_g.bmp,None,L_h.bmp,None,0.75,0.75,0,76,76,76,,,,,,,,,,,,,,,,,,,,,,,,,,None,1,335.3873606,None,335.3873606,None,,,,,,,,,,,,,,,,,,,,,,,,,,,,,,,,,,,,,,,,,,,,,,,,,,,example1,1,2025-01-01_00h00.00.000,PGNGS_RST_750,2022.1.4,60.01619236
L_l.bmp,None,L_j.bmp,None,L_v.bmp,None,L_s.bmp,n,0.75,0.75,0,77,77,77,,,,,,,,,,,,,,,,,,,,,,,,,,None,1,336.1373836,None,336.1373836,None,,,,,,,,,,,,,,,,,,,,,,,,,,,,,,,,,,,,,,,,,,,,,,,,,,,example1,1,2025-01-01_00h00.00.000,PGNGS_RST_750,2022.1.4,60.01619236
L_s.bmp,n,L_p.bmp,None,L_s.bmp,n,L_v.bmp,None,0.75,0.75,0,78,78,78,,,,,,,,,,,,,,,,,,,,,,,,,,n,1,336.8879882,None,336.8879882,None,0.3824105,,,,,,,,,,,,,,,,,,,,,,,,,,,,,,,,,,,,,,,,,,,,,,,,,,example1,1,2025-01-01_00h00.00.000,PGNGS_RST_750,2022.1.4,60.01619236
L_f.bmp,None,L_b.bmp,None,L_b.bmp,None,L_p.bmp,None,0.75,0.75,0,79,79,79,,,,,,,,,,,,,,,,,,,,,,,,,,None,1,337.6375269,None,337.6375269,None,,,,,,,,,,,,,,,,,,,,,,,,,,,,,,,,,,,,,,,,,,,,,,,,,,,example1,1,2025-01-01_00h00.00.000,PGNGS_RST_750,2022.1.4,60.01619236
L_n.bmp,None,L_f.bmp,None,L_v.bmp,None,L_d.bmp,None,0.75,0.75,0,80,80,80,,,,,,,,,,,,,,,,,,,,,,,,,,None,1,338.3875337,None,338.3875337,None,,,,,,,,,,,,,,,,,,,,,,,,,,,,,,,,,,,,,,,,,,,,,,,,,,,example1,1,2025-01-01_00h00.00.000,PGNGS_RST_750,2022.1.4,60.01619236
L_w.bmp,None,L_s.bmp,n,L_h.bmp,None,L_s.bmp,None,0.75,0.75,0,81,81,81,,,,,,,,,,,,,,,,,,,,,,,,,,None,1,339.1372593,None,339.1372593,None,,,,,,,,,,,,,,,,,,,,,,,,,,,,,,,,,,,,,,,,,,,,,,,,,,,example1,1,2025-01-01_00h00.00.000,PGNGS_RST_750,2022.1.4,60.01619236
L_b.bmp,None,L_l.bmp,None,L_w.bmp,None,L_j.bmp,None,0.75,0.75,0,82,82,82,,,,,,,,,,,,,,,,,,,,,,,,,,None,1,339.8877049,None,339.8877049,None,,,,,,,,,,,,,,,,,,,,,,,,,,,,,,,,,,,,,,,,,,,,,,,,,,,example1,1,2025-01-01_00h00.00.000,PGNGS_RST_750,2022.1.4,60.01619236
L_v.bmp,None,L_j.bmp,None,L_m.bmp,None,L_d.bmp,None,0.75,0.75,0,83,83,83,,,,,,,,,,,,,,,,,,,,,,,,,,None,1,340.6372516,None,340.6372516,None,,,,,,,,,,,,,,,,,,,,,,,,,,,,,,,,,,,,,,,,,,,,,,,,,,,example1,1,2025-01-01_00h00.00.000,PGNGS_RST_750,2022.1.4,60.01619236
L_s.bmp,n,L_r.bmp,n,L_j.bmp,None,L_b.bmp,None,0.4,0.75,0,84,84,84,,,,,,,,,,,,,,,,,,,,,,,,,,n,1,341.3874107,None,341.3874107,None,0.5062972,,,,,,,,,,,,,,,,,,,,,,,,,,,,,,,,,,,,,,,,,,,,,,,,,,example1,1,2025-01-01_00h00.00.000,PGNGS_RST_750,2022.1.4,60.01619236
L_q.bmp,None,L_m.bmp,None,L_m.bmp,None,L_t.bmp,n,0.35,0.75,0,85,85,85,,,,,,,,,,,,,,,,,,,,,,,,,,None,1,342.1374434,None,342.1374434,None,,,,,,,,,,,,,,,,,,,,,,,,,,,,,,,,,,,,,,,,,,,,,,,,,,,example1,1,2025-01-01_00h00.00.000,PGNGS_RST_750,2022.1.4,60.01619236
L_d.bmp,None,L_v.bmp,None,L_g.bmp,None,L_q.bmp,None,0.75,0.75,0,86,86,86,,,,,,,,,,,,,,,,,,,,,,,,,,None,1,342.887904,None,342.887904,None,,,,,,,,,,,,,,,,,,,,,,,,,,,,,,,,,,,,,,,,,,,,,,,,,,,example1,1,2025-01-01_00h00.00.000,PGNGS_RST_750,2022.1.4,60.01619236
L_r.bmp,n,L_d.bmp,None,L_k.bmp,None,L_m.bmp,None,0.75,0.3,0,87,87,87,,,,,,,,,,,,,,,,,,,,,,,,,,n,1,343.6371869,None,343.6371869,None,0.4955114,,,,,,,,,,,,,,,,,,,,,,,,,,,,,,,,,,,,,,,,,,,,,,,,,,example1,1,2025-01-01_00h00.00.000,PGNGS_RST_750,2022.1.4,60.01619236
L_v.bmp,None,L_s.bmp,n,L_b.bmp,None,L_q.bmp,None,0.75,0.45,0,88,88,88,,,,,,,,,,,,,,,,,,,,,,,,,,None,1,344.3873723,None,344.3873723,None,,,,,,,,,,,,,,,,,,,,,,,,,,,,,,,,,,,,,,,,,,,,,,,,,,,example1,1,2025-01-01_00h00.00.000,PGNGS_RST_750,2022.1.4,60.01619236
L_c.bmp,None,L_j.bmp,None,L_r.bmp,n,L_s.bmp,n,0.75,0.75,0,89,89,89,,,,,,,,,,,,,,,,,,,,,,,,,,None,1,345.1374817,None,345.1374817,None,,,,,,,,,,,,,,,,,,,,,,,,,,,,,,,,,,,,,,,,,,,,,,,,,,,example1,1,2025-01-01_00h00.00.000,PGNGS_RST_750,2022.1.4,60.01619236
L_j.bmp,None,L_d.bmp,None,L_n.bmp,None,L_d.bmp,None,0.75,0.75,0,90,90,90,,,,,,,,,,,,,,,,,,,,,,,,,,None,1,345.8879204,None,345.8879204,None,,,,,,,,,,,,,,,,,,,,,,,,,,,,,,,,,,,,,,,,,,,,,,,,,,,example1,1,2025-01-01_00h00.00.000,PGNGS_RST_750,2022.1.4,60.01619236
L_k.bmp,None,L_b.bmp,None,L_q.bmp,None,L_w.bmp,None,0.75,0.75,0,91,91,91,,,,,,,,,,,,,,,,,,,,,,,,,,None,1,346.6372338,None,346.6372338,None,,,,,,,,,,,,,,,,,,,,,,,,,,,,,,,,,,,,,,,,,,,,,,,,,,,example1,1,2025-01-01_00h00.00.000,PGNGS_RST_750,2022.1.4,60.01619236
L_w.bmp,None,L_s.bmp,None,L_f.bmp,None,L_p.bmp,None,0.75,0.75,0,92,92,92,,,,,,,,,,,,,,,,,,,,,,,,,,None,1,347.3874516,None,347.3874516,None,,,,,,,,,,,,,,,,,,,,,,,,,,,,,,,,,,,,,,,,,,,,,,,,,,,example1,1,2025-01-01_00h00.00.000,PGNGS_RST_750,2022.1.4,60.01619236
L_s.bmp,n,L_q.bmp,None,L_t.bmp,n,L_f.bmp,None,0.75,0.75,0,93,93,93,,,,,,,,,,,,,,,,,,,,,,,,,,n,1,348.1374161,None,348.1374161,None,0.4281324,,,,,,,,,,,,,,,,,,,,,,,,,,,,,,,,,,,,,,,,,,,,,,,,,,example1,1,2025-01-01_00h00.00.000,PGNGS_RST_750,2022.1.4,60.01619236
L_f.bmp,None,L_m.bmp,None,L_p.bmp,None,L_s.bmp,None,0.75,0.75,0,94,94,94,,,,,,,,,,,,,,,,,,,,,,,,,,None,1,348.8879996,None,348.8879996,None,,,,,,,,,,,,,,,,,,,,,,,,,,,,,,,,,,,,,,,,,,,,,,,,,,,example1,1,2025-01-01_00h00.00.000,PGNGS_RST_750,2022.1.4,60.01619236
L_m.bmp,None,L_q.bmp,None,L_k.bmp,None,L_w.bmp,None,0.75,0.75,0,95,95,95,,,,,,,,,,,,,,,,,,,,,,,,,,None,1,349.637243,None,349.637243,None,,,,,,,,,,,,,,,,,,,,,,,,,,,,,,,,,,,,,,,,,,,,,,,,,,,example1,1,2025-01-01_00h00.00.000,PGNGS_RST_750,2022.1.4,60.01619236
L_g.bmp,None,L_d.bmp,None,L_g.bmp,None,L_m.bmp,None,0.75,0.75,0,96,96,96,,,,,,,,,,,,,,,,,,,,,,,,,,None,1,350.3876289,None,350.3876289,None,,,,,,,,,,,,,,,,,,,,,,,,,,,,,,,,,,,,,,,,,,,,,,,,,,,example1,1,2025-01-01_00h00.00.000,PGNGS_RST_750,2022.1.4,60.01619236
L_l.bmp,None,L_r.bmp,n,L_f.bmp,None,L_t.bmp,n,0.75,0.75,0,97,97,97,,,,,,,,,,,,,,,,,,,,,,,,,,None,1,351.1374851,None,351.1374851,None,,,,,,,,,,,,,,,,,,,,,,,,,,,,,,,,,,,,,,,,,,,,,,,,,,,example1,1,2025-01-01_00h00.00.000,PGNGS_RST_750,2022.1.4,60.01619236
L_w.bmp,None,L_w.bmp,None,L_k.bmp,None,L_p.bmp,None,0.75,0.75,0,98,98,98,,,,,,,,,,,,,,,,,,,,,,,,,,None,1,351.8879619,None,351.8879619,None,,,,,,,,,,,,,,,,,,,,,,,,,,,,,,,,,,,,,,,,,,,,,,,,,,,example1,1,2025-01-01_00h00.00.000,PGNGS_RST_750,2022.1.4,60.01619236
L_h.bmp,None,L_p.bmp,None,L_q.bmp,None,L_d.bmp,None,0.75,0.75,0,99,99,99,,,,,,,,,,,,,,,,,,,,,,,,,,None,1,352.6368202,None,352.6368202,None,,,,,,,,,,,,,,,,,,,,,,,,,,,,,,,,,,,,,,,,,,,,,,,,,,,example1,1,2025-01-01_00h00.00.000,PGNGS_RST_750,2022.1.4,60.01619236
L_w.bmp,None,L_s.bmp,n,L_w.bmp,None,L_r.bmp,n,0.75,0.75,0,100,100,100,,,,,,,,,,,,,,,,,,,,,,,,,,None,1,353.3879184,None,353.3879184,None,,,,,,,,,,,,,,,,,,,,,,,,,,,,,,,,,,,,,,,,,,,,,,,,,,,example1,1,2025-01-01_00h00.00.000,PGNGS_RST_750,2022.1.4,60.01619236
L_g.bmp,None,L_f.bmp,None,L_j.bmp,None,L_m.bmp,None,0.75,0.75,0,101,101,101,,,,,,,,,,,,,,,,,,,,,,,,,,None,1,354.137467,None,354.137467,None,,,,,,,,,,,,,,,,,,,,,,,,,,,,,,,,,,,,,,,,,,,,,,,,,,,example1,1,2025-01-01_00h00.00.000,PGNGS_RST_750,2022.1.4,60.01619236
L_m.bmp,None,L_w.bmp,None,L_p.bmp,None,L_q.bmp,None,0.75,0.75,0,102,102,102,,,,,,,,,,,,,,,,,,,,,,,,,,None,1,354.8880536,None,354.8880536,None,,,,,,,,,,,,,,,,,,,,,,,,,,,,,,,,,,,,,,,,,,,,,,,,,,,example1,1,2025-01-01_00h00.00.000,PGNGS_RST_750,2022.1.4,60.01619236
L_w.bmp,None,L_m.bmp,None,L_g.bmp,None,L_k.bmp,None,0.75,0.75,0,103,103,103,,,,,,,,,,,,,,,,,,,,,,,,,,None,1,355.63723,None,355.63723,None,,,,,,,,,,,,,,,,,,,,,,,,,,,,,,,,,,,,,,,,,,,,,,,,,,,example1,1,2025-01-01_00h00.00.000,PGNGS_RST_750,2022.1.4,60.01619236
L_h.bmp,None,L_r.bmp,n,L_q.bmp,None,L_t.bmp,n,0.75,0.75,0,104,104,104,,,,,,,,,,,,,,,,,,,,,,,,,,None,1,356.3873812,None,356.3873812,None,,,,,,,,,,,,,,,,,,,,,,,,,,,,,,,,,,,,,,,,,,,,,,,,,,,example1,1,2025-01-01_00h00.00.000,PGNGS_RST_750,2022.1.4,60.01619236
L_r.bmp,n,L_p.bmp,None,L_w.bmp,None,L_b.bmp,None,0.75,0.75,0,105,105,105,,,,,,,,,,,,,,,,,,,,,,,,,,n,1,357.137285,None,357.137285,None,0.4514322,,,,,,,,,,,,,,,,,,,,,,,,,,,,,,,,,,,,,,,,,,,,,,,,,,example1,1,2025-01-01_00h00.00.000,PGNGS_RST_750,2022.1.4,60.01619236
L_b.bmp,None,L_d.bmp,None,L_d.bmp,None,L_m.bmp,None,0.75,0.75,0,106,106,106,,,,,,,,,,,,,,,,,,,,,,,,,,None,1,357.8879873,None,357.8879873,None,,,,,,,,,,,,,,,,,,,,,,,,,,,,,,,,,,,,,,,,,,,,,,,,,,,example1,1,2025-01-01_00h00.00.000,PGNGS_RST_750,2022.1.4,60.01619236
L_v.bmp,None,L_c.bmp,None,L_f.bmp,None,L_g.bmp,None,0.75,0.75,0,107,107,107,,,,,,,,,,,,,,,,,,,,,,,,,,None,1,358.6371907,None,358.6371907,None,,,,,,,,,,,,,,,,,,,,,,,,,,,,,,,,,,,,,,,,,,,,,,,,,,,example1,1,2025-01-01_00h00.00.000,PGNGS_RST_750,2022.1.4,60.01619236
L_h.bmp,None,L_s.bmp,n,L_s.bmp,n,L_t.bmp,None,0.3,0.75,0,108,108,108,,,,,,,,,,,,,,,,,,,,,,,,,,None,1,359.3879468,None,359.3879468,None,,,,,,,,,,,,,,,,,,,,,,,,,,,,,,,,,,,,,,,,,,,,,,,,,,,example1,1,2025-01-01_00h00.00.000,PGNGS_RST_750,2022.1.4,60.01619236
L_w.bmp,None,L_q.bmp,None,L_f.bmp,None,L_g.bmp,None,0.45,0.75,0,109,109,109,,,,,,,,,,,,,,,,,,,,,,,,,,None,1,360.1375533,None,360.1375533,None,,,,,,,,,,,,,,,,,,,,,,,,,,,,,,,,,,,,,,,,,,,,,,,,,,,example1,1,2025-01-01_00h00.00.000,PGNGS_RST_750,2022.1.4,60.01619236
L_m.bmp,None,L_k.bmp,None,L_n.bmp,None,L_h.bmp,None,0.75,0.75,0,110,110,110,,,,,,,,,,,,,,,,,,,,,,,,,,None,1,360.8878692,None,360.8878692,None,,,,,,,,,,,,,,,,,,,,,,,,,,,,,,,,,,,,,,,,,,,,,,,,,,,example1,1,2025-01-01_00h00.00.000,PGNGS_RST_750,2022.1.4,60.01619236
L_j.bmp,None,L_b.bmp,None,L_w.bmp,None,L_g.bmp,None,0.75,0.75,0,111,111,111,,,,,,,,,,,,,,,,,,,,,,,,,,None,1,361.6371019,None,361.6371019,None,,,,,,,,,,,,,,,,,,,,,,,,,,,,,,,,,,,,,,,,,,,,,,,,,,,example1,1,2025-01-01_00h00.00.000,PGNGS_RST_750,2022.1.4,60.01619236
L_m.bmp,None,L_r.bmp,n,L_b.bmp,None,L_p.bmp,None,0.75,0.75,0,112,112,112,,,,,,,,,,,,,,,,,,,,,,,,,,None,1,362.3878349,None,362.3878349,None,,,,,,,,,,,,,,,,,,,,,,,,,,,,,,,,,,,,,,,,,,,,,,,,,,,example1,1,2025-01-01_00h00.00.000,PGNGS_RST_750,2022.1.4,60.01619236
L_g.bmp,None,L_m.bmp,None,L_s.bmp,n,L_c.bmp,None,0.75,0.75,0,113,113,113,,,,,,,,,,,,,,,,,,,,,,,,,,None,1,363.1372827,None,363.1372827,None,,,,,,,,,,,,,,,,,,,,,,,,,,,,,,,,,,,,,,,,,,,,,,,,,,,example1,1,2025-01-01_00h00.00.000,PGNGS_RST_750,2022.1.4,60.01619236
L_k.bmp,None,L_l.bmp,None,L_v.bmp,None,L_r.bmp,n,0.75,0.75,0,114,114,114,,,,,,,,,,,,,,,,,,,,,,,,,,None,1,363.8879066,None,363.8879066,None,,,,,,,,,,,,,,,,,,,,,,,,,,,,,,,,,,,,,,,,,,,,,,,,,,,example1,1,2025-01-01_00h00.00.000,PGNGS_RST_750,2022.1.4,60.01619236
L_b.bmp,None,L_h.bmp,None,L_q.bmp,None,L_h.bmp,None,0.75,0.75,0,115,115,115,,,,,,,,,,,,,,,,,,,,,,,,,,None,1,364.6368968,None,364.6368968,None,,,,,,,,,,,,,,,,,,,,,,,,,,,,,,,,,,,,,,,,,,,,,,,,,,,example1,1,2025-01-01_00h00.00.000,PGNGS_RST_750,2022.1.4,60.01619236
L_r.bmp,n,L_g.bmp,None,L_d.bmp,None,L_d.bmp,None,0.75,0.75,0,116,116,116,,,,,,,,,,,,,,,,,,,,,,,,,,n,1,365.3876693,None,365.3876693,None,0.4741668,,,,,,,,,,,,,,,,,,,,,,,,,,,,,,,,,,,,,,,,,,,,,,,,,,example1,1,2025-01-01_00h00.00.000,PGNGS_RST_750,2022.1.4,60.01619236
L_n.bmp,None,L_r.bmp,None,L_r.bmp,n,L_m.bmp,None,0.75,0.25,0,117,117,117,,,,,,,,,,,,,,,,,,,,,,,,,,None,1,366.1374947,None,366.1374947,None,,,,,,,,,,,,,,,,,,,,,,,,,,,,,,,,,,,,,,,,,,,,,,,,,,,example1,1,2025-01-01_00h00.00.000,PGNGS_RST_750,2022.1.4,60.01619236
L_q.bmp,None,L_g.bmp,None,L_v.bmp,None,L_j.bmp,None,0.75,0.5,0,118,118,118,,,,,,,,,,,,,,,,,,,,,,,,,,None,1,366.8878434,None,366.8878434,None,,,,,,,,,,,,,,,,,,,,,,,,,,,,,,,,,,,,,,,,,,,,,,,,,,,example1,1,2025-01-01_00h00.00.000,PGNGS_RST_750,2022.1.4,60.01619236
L_f.bmp,None,L_p.bmp,None,L_c.bmp,None,L_p.bmp,None,0.75,0.75,0,119,119,119,,,,,,,,,,,,,,,,,,,,,,,,,,None,1,367.6368729,None,367.6368729,None,,,,,,,,,,,,,,,,,,,,,,,,,,,,,,,,,,,,,,,,,,,,,,,,,,,example1,1,2025-01-01_00h00.00.000,PGNGS_RST_750,2022.1.4,60.01619236
L_r.bmp,n,L_c.bmp,None,L_j.bmp,None,L_b.bmp,None,0.75,0.75,0,120,120,120,,,,,,,,,,,,,,,,,,,,,,,,,,n,1,368.3878179,None,368.3878179,None,0.6255374,,,,,,,,,,,,,,,,,,,,,,,,,,,,,,,,,,,,,,,,,,,,,,,,,,example1,1,2025-01-01_00h00.00.000,PGNGS_RST_750,2022.1.4,60.01619236
L_p.bmp,None,L_s.bmp,n,L_k.bmp,None,L_s.bmp,n,0.25,0.75,0,121,121,121,,,,,,,,,,,,,,,,,,,,,,,,,,None,1,369.137275,None,369.137275,None,,,,,,,,,,,,,,,,,,,,,,,,,,,,,,,,,,,,,,,,,,,,,,,,,,,example1,1,2025-01-01_00h00.00.000,PGNGS_RST_750,2022.1.4,60.01619236
L_k.bmp,None,L_g.bmp,None,L_w.bmp,None,L_b.bmp,None,0.5,0.75,0,122,122,122,,,,,,,,,,,,,,,,,,,,,,,,,,None,1,369.888006,None,369.888006,None,,,,,,,,,,,,,,,,,,,,,,,,,,,,,,,,,,,,,,,,,,,,,,,,,,,example1,1,2025-01-01_00h00.00.000,PGNGS_RST_750,2022.1.4,60.01619236
L_s.bmp,n,L_h.bmp,None,L_t.bmp,n,L_f.bmp,None,0.75,0.75,0,123,123,123,,,,,,,,,,,,,,,,,,,,,,,,,,n,1,370.6369977,None,370.6369977,None,0.5210335,,,,,,,,,,,,,,,,,,,,,,,,,,,,,,,,,,,,,,,,,,,,,,,,,,example1,1,2025-01-01_00h00.00.000,PGNGS_RST_750,2022.1.4,60.01619236
L_f.bmp,None,L_m.bmp,None,L_f.bmp,None,L_r.bmp,n,0.75,0.75,0,124,124,124,,,,,,,,,,,,,,,,,,,,,,,,,,None,1,371.3878139,None,371.3878139,None,,,,,,,,,,,,,,,,,,,,,,,,,,,,,,,,,,,,,,,,,,,,,,,,,,,example1,1,2025-01-01_00h00.00.000,PGNGS_RST_750,2022.1.4,60.01619236
L_g.bmp,None,L_j.bmp,None,L_m.bmp,None,L_w.bmp,None,0.75,0.75,0,125,125,125,,,,,,,,,,,,,,,,,,,,,,,,,,None,1,372.1375366,None,372.1375366,None,,,,,,,,,,,,,,,,,,,,,,,,,,,,,,,,,,,,,,,,,,,,,,,,,,,example1,1,2025-01-01_00h00.00.000,PGNGS_RST_750,2022.1.4,60.01619236
L_k.bmp,None,L_p.bmp,None,L_g.bmp,None,L_h.bmp,None,0.75,0.75,0,126,126,126,,,,,,,,,,,,,,,,,,,,,,,,,,None,1,372.8880349,None,372.8880349,None,,,,,,,,,,,,,,,,,,,,,,,,,,,,,,,,,,,,,,,,,,,,,,,,,,,example1,1,2025-01-01_00h00.00.000,PGNGS_RST_750,2022.1.4,60.01619236
L_w.bmp,None,L_b.bmp,None,L_l.bmp,None,L_k.bmp,None,0.75,0.75,0,127,127,127,,,,,,,,,,,,,,,,,,,,,,,,,,None,1,373.6369715,None,373.6369715,None,,,,,,,,,,,,,,,,,,,,,,,,,,,,,,,,,,,,,,,,,,,,,,,,,,,example1,1,2025-01-01_00h00.00.000,PGNGS_RST_750,2022.1.4,60.01619236
L_j.bmp,None,L_s.bmp,None,L_w.bmp,None,L_r.bmp,None,0.75,0.75,0,128,128,128,,,,,,,,,,,,,,,,,,,,,,,,,,None,1,374.3876848,None,374.3876848,None,,,,,,,,,,,,,,,,,,,,,,,,,,,,,,,,,,,,,,,,,,,,,,,,,,,example1,1,2025-01-01_00h00.00.000,PGNGS_RST_750,2022.1.4,60.01619236
L_p.bmp,None,L_g.bmp,None,L_h.bmp,None,L_q.bmp,None,0.75,0.75,0,129,129,129,,,,,,,,,,,,,,,,,,,,,,,,,,None,1,375.137331,None,375.137331,None,,,,,,,,,,,,,,,,,,,,,,,,,,,,,,,,,,,,,,,,,,,,,,,,,,,example1,1,2025-01-01_00h00.00.000,PGNGS_RST_750,2022.1.4,60.01619236
L_g.bmp,None,L_b.bmp,None,L_w.bmp,None,L_d.bmp,None,0.75,0.75,0,130,130,130,,,,,,,,,,,,,,,,,,,,,,,,,,None,1,375.8876757,None,375.8876757,None,,,,,,,,,,,,,,,,,,,,,,,,,,,,,,,,,,,,,,,,,,,,,,,,,,,example1,1,2025-01-01_00h00.00.000,PGNGS_RST_750,2022.1.4,60.01619236
L_q.bmp,None,L_w.bmp,None,L_g.bmp,None,L_l.bmp,None,0.75,0.75,0,131,131,131,,,,,,,,,,,,,,,,,,,,,,,,,,None,1,376.6370136,None,376.6370136,None,,,,,,,,,,,,,,,,,,,,,,,,,,,,,,,,,,,,,,,,,,,,,,,,,,,example1,1,2025-01-01_00h00.00.000,PGNGS_RST_750,2022.1.4,60.01619236
L_w.bmp,None,L_r.bmp,n,L_m.bmp,None,L_j.bmp,None,0.75,0.75,0,132,132,132,,,,,,,,,,,,,,,,,,,,,,,,,,None,1,377.3880831,None,377.3880831,None,,,,,,,,,,,,,,,,,,,,,,,,,,,,,,,,,,,,,,,,,,,,,,,,,,,example1,1,2025-01-01_00h00.00.000,PGNGS_RST_750,2022.1.4,60.01619236
L_d.bmp,None,L_b.bmp,None,L_w.bmp,None,L_f.bmp,None,0.75,0.75,0,133,133,133,,,,,,,,,,,,,,,,,,,,,,,,,,None,1,378.1376331,None,378.1376331,None,,,,,,,,,,,,,,,,,,,,,,,,,,,,,,,,,,,,,,,,,,,,,,,,,,,example1,1,2025-01-01_00h00.00.000,PGNGS_RST_750,2022.1.4,60.01619236
L_f.bmp,None,L_k.bmp,None,L_h.bmp,None,L_s.bmp,n,0.75,0.75,0,134,134,134,,,,,,,,,,,,,,,,,,,,,,,,,,None,1,378.8877714,None,378.8877714,None,,,,,,,,,,,,,,,,,,,,,,,,,,,,,,,,,,,,,,,,,,,,,,,,,,,example1,1,2025-01-01_00h00.00.000,PGNGS_RST_750,2022.1.4,60.01619236
L_s.bmp,n,L_g.bmp,None,L_r.bmp,n,L_b.bmp,None,0.75,0.75,0,135,135,135,,,,,,,,,,,,,,,,,,,,,,,,,,n,1,379.6369665,None,379.6369665,None,0.3837754,,,,,,,,,,,,,,,,,,,,,,,,,,,,,,,,,,,,,,,,,,,,,,,,,,example1,1,2025-01-01_00h00.00.000,PGNGS_RST_750,2022.1.4,60.01619236
L_j.bmp,None,L_s.bmp,n,L_j.bmp,None,L_p.bmp,None,0.75,0.75,0,136,136,136,,,,,,,,,,,,,,,,,,,,,,,,,,None,1,380.387998,None,380.387998,None,,,,,,,,,,,,,,,,,,,,,,,,,,,,,,,,,,,,,,,,,,,,,,,,,,,example1,1,2025-01-01_00h00.00.000,PGNGS_RST_750,2022.1.4,60.01619236
L_k.bmp,None,L_g.bmp,None,L_k.bmp,None,L_w.bmp,None,0.75,0.75,0,137,137,137,,,,,,,,,,,,,,,,,,,,,,,,,,None,1,381.137272,None,381.137272,None,,,,,,,,,,,,,,,,,,,,,,,,,,,,,,,,,,,,,,,,,,,,,,,,,,,example1,1,2025-01-01_00h00.00.000,PGNGS_RST_750,2022.1.4,60.01619236
L_r.bmp,n,L_b.bmp,None,L_r.bmp,n,L_f.bmp,None,0.75,0.25,0,138,138,138,,,,,,,,,,,,,,,,,,,,,,,,,,n,1,381.8878506,None,381.8878506,None,0.4218406,,,,,,,,,,,,,,,,,,,,,,,,,,,,,,,,,,,,,,,,,,,,,,,,,,example1,1,2025-01-01_00h00.00.000,PGNGS_RST_750,2022.1.4,60.01619236
L_k.bmp,None,L_r.bmp,n,L_k.bmp,None,L_k.bmp,None,0.75,0.5,0,139,139,139,,,,,,,,,,,,,,,,,,,,,,,,,,None,1,382.6369419,None,382.6369419,None,,,,,,,,,,,,,,,,,,,,,,,,,,,,,,,,,,,,,,,,,,,,,,,,,,,example1,1,2025-01-01_00h00.00.000,PGNGS_RST_750,2022.1.4,60.01619236
L_f.bmp,None,L_j.bmp,None,L_f.bmp,None,L_p.bmp,None,0.75,0.75,0,140,140,140,,,,,,,,,,,,,,,,,,,,,,,,,,None,1,383.3876915,None,383.3876915,None,,,,,,,,,,,,,,,,,,,,,,,,,,,,,,,,,,,,,,,,,,,,,,,,,,,example1,1,2025-01-01_00h00.00.000,PGNGS_RST_750,2022.1.4,60.01619236
L_l.bmp,None,L_b.bmp,None,L_l.bmp,None,L_t.bmp,n,0.75,0.75,0,141,141,141,,,,,,,,,,,,,,,,,,,,,,,,,,None,1,384.1374781,None,384.1374781,None,,,,,,,,,,,,,,,,,,,,,,,,,,,,,,,,,,,,,,,,,,,,,,,,,,,example1,1,2025-01-01_00h00.00.000,PGNGS_RST_750,2022.1.4,60.01619236
L_s.bmp,n,L_s.bmp,n,L_t.bmp,n,L_l.bmp,None,0.75,0.75,0,142,142,142,,,,,,,,,,,,,,,,,,,,,,,,,,n,1,384.8880503,None,384.8880503,None,0.413855,,,,,,,,,,,,,,,,,,,,,,,,,,,,,,,,,,,,,,,,,,,,,,,,,,example1,1,2025-01-01_00h00.00.000,PGNGS_RST_750,2022.1.4,60.01619236
L_n.bmp,None,L_n.bmp,None,L_n.bmp,None,L_b.bmp,None,0.75,0.75,0,143,143,143,,,,,,,,,,,,,,,,,,,,,,,,,,None,1,385.6370226,None,385.6370226,None,,,,,,,,,,,,,,,,,,,,,,,,,,,,,,,,,,,,,,,,,,,,,,,,,,,example1,1,2025-01-01_00h00.00.000,PGNGS_RST_750,2022.1.4,60.01619236
L_d.bmp,None,L_j.bmp,None,L_d.bmp,None,L_h.bmp,None,0.75,0.75,0,144,144,144,,,,,,,,,,,,,,,,,,,,,,,,,,None,1,386.3879051,None,386.3879051,None,,,,,,,,,,,,,,,,,,,,,,,,,,,,,,,,,,,,,,,,,,,,,,,,,,,example1,1,2025-01-01_00h00.00.000,PGNGS_RST_750,2022.1.4,60.01619236
L_s.bmp,n,L_h.bmp,None,L_s.bmp,n,L_c.bmp,None,0.75,0.75,0,145,145,145,,,,,,,,,,,,,,,,,,,,,,,,,,n,1,387.1375801,None,387.1375801,None,0.3871357,,,,,,,,,,,,,,,,,,,,,,,,,,,,,,,,,,,,,,,,,,,,,,,,,,example1,1,2025-01-01_00h00.00.000,PGNGS_RST_750,2022.1.4,60.01619236
L_v.bmp,None,L_m.bmp,None,L_v.bmp,None,L_m.bmp,None,0.75,0.75,0,146,146,146,,,,,,,,,,,,,,,,,,,,,,,,,,None,1,387.8880303,None,387.8880303,None,,,,,,,,,,,,,,,,,,,,,,,,,,,,,,,,,,,,,,,,,,,,,,,,,,,example1,1,2025-01-01_00h00.00.000,PGNGS_RST_750,2022.1.4,60.01619236
L_f.bmp,None,L_q.bmp,None,L_f.bmp,None,L_j.bmp,None,0.75,0.75,0,147,147,147,,,,,,,,,,,,,,,,,,,,,,,,,,None,1,388.6369438,None,388.6369438,None,,,,,,,,,,,,,,,,,,,,,,,,,,,,,,,,,,,,,,,,,,,,,,,,,,,example1,1,2025-01-01_00h00.00.000,PGNGS_RST_750,2022.1.4,60.01619236
L_w.bmp,None,L_b.bmp,None,L_w.bmp,None,L_p.bmp,None,0.75,0.75,0,148,148,148,,,,,,,,,,,,,,,,,,,,,,,,,,None,1,389.388051,None,389.388051,None,,,,,,,,,,,,,,,,,,,,,,,,,,,,,,,,,,,,,,,,,,,,,,,,,,,example1,1,2025-01-01_00h00.00.000,PGNGS_RST_750,2022.1.4,60.01619236
L_q.bmp,None,L_g.bmp,None,L_q.bmp,None,L_b.bmp,None,0.25,0.75,0,149,149,149,,,,,,,,,,,,,,,,,,,,,,,,,,None,1,390.1374567,None,390.1374567,None,,,,,,,,,,,,,,,,,,,,,,,,,,,,,,,,,,,,,,,,,,,,,,,,,,,example1,1,2025-01-01_00h00.00.000,PGNGS_RST_750,2022.1.4,60.01619236
L_k.bmp,None,L_r.bmp,n,L_k.bmp,None,L_f.bmp,None,0.5,0.75,0,150,150,150,,,,,,,,,,,,,,,,,,,,,,,,,,None,1,390.8876675,None,390.8876675,None,,,,,,,,,,,,,,,,,,,,,,,,,,,,,,,,,,,,,,,,,,,,,,,,,,,example1,1,2025-01-01_00h00.00.000,PGNGS_RST_750,2022.1.4,60.01619236
L_b.bmp,None,L_j.bmp,None,L_b.bmp,None,L_l.bmp,None,0.75,0.75,0,151,151,151,,,,,,,,,,,,,,,,,,,,,,,,,,None,1,391.6369371,None,391.6369371,None,,,,,,,,,,,,,,,,,,,,,,,,,,,,,,,,,,,,,,,,,,,,,,,,,,,example1,1,2025-01-01_00h00.00.000,PGNGS_RST_750,2022.1.4,60.01619236
L_f.bmp,None,L_f.bmp,None,L_j.bmp,None,L_v.bmp,None,0.75,0.75,0,152,152,152,,,,,,,,,,,,,,,,,,,,,,,,,,None,1,392.3880028,None,392.3880028,None,,,,,,,,,,,,,,,,,,,,,,,,,,,,,,,,,,,,,,,,,,,,,,,,,,,example1,1,2025-01-01_00h00.00.000,PGNGS_RST_750,2022.1.4,60.01619236
L_j.bmp,None,L_v.bmp,None,L_c.bmp,None,L_j.bmp,None,0.75,0.75,0,153,153,153,,,,,,,,,,,,,,,,,,,,,,,,,,None,1,393.1377958,None,393.1377958,None,,,,,,,,,,,,,,,,,,,,,,,,,,,,,,,,,,,,,,,,,,,,,,,,,,,example1,1,2025-01-01_00h00.00.000,PGNGS_RST_750,2022.1.4,60.01619236
L_s.bmp,n,L_f.bmp,None,L_s.bmp,n,L_t.bmp,None,0.75,0.75,0,154,154,154,,,,,,,,,,,,,,,,,,,,,,,,,,n,1,393.8874601,None,393.8874601,None,0.4063647,,,,,,,,,,,,,,,,,,,,,,,,,,,,,,,,,,,,,,,,,,,,,,,,,,example1,1,2025-01-01_00h00.00.000,PGNGS_RST_750,2022.1.4,60.01619236
L_b.bmp,None,L_g.bmp,None,L_b.bmp,None,L_m.bmp,None,0.75,0.75,0,155,155,155,,,,,,,,,,,,,,,,,,,,,,,,,,None,1,394.6370185,None,394.6370185,None,,,,,,,,,,,,,,,,,,,,,,,,,,,,,,,,,,,,,,,,,,,,,,,,,,,example1,1,2025-01-01_00h00.00.000,PGNGS_RST_750,2022.1.4,60.01619236
L_q.bmp,None,L_h.bmp,None,L_q.bmp,None,L_k.bmp,None,0.75,0.75,0,156,156,156,,,,,,,,,,,,,,,,,,,,,,,,,,None,1,395.3881437,None,395.3881437,None,,,,,,,,,,,,,,,,,,,,,,,,,,,,,,,,,,,,,,,,,,,,,,,,,,,example1,1,2025-01-01_00h00.00.000,PGNGS_RST_750,2022.1.4,60.01619236
L_m.bmp,None,L_b.bmp,None,L_m.bmp,None,L_b.bmp,None,0.75,0.75,0,157,157,157,,,,,,,,,,,,,,,,,,,,,,,,,,None,1,396.1373863,None,396.1373863,None,,,,,,,,,,,,,,,,,,,,,,,,,,,,,,,,,,,,,,,,,,,,,,,,,,,example1,1,2025-01-01_00h00.00.000,PGNGS_RST_750,2022.1.4,60.01619236
L_q.bmp,None,L_v.bmp,None,L_q.bmp,None,L_s.bmp,n,0.75,0.75,0,158,158,158,,,,,,,,,,,,,,,,,,,,,,,,,,None,1,396.8877436,None,396.8877436,None,,,,,,,,,,,,,,,,,,,,,,,,,,,,,,,,,,,,,,,,,,,,,,,,,,,example1,1,2025-01-01_00h00.00.000,PGNGS_RST_750,2022.1.4,60.01619236
L_f.bmp,None,L_c.bmp,None,L_f.bmp,None,L_b.bmp,None,0.75,0.75,0,159,159,159,,,,,,,,,,,,,,,,,,,,,,,,,,None,1,397.6371136,None,397.6371136,None,,,,,,,,,,,,,,,,,,,,,,,,,,,,,,,,,,,,,,,,,,,,,,,,,,,example1,1,2025-01-01_00h00.00.000,PGNGS_RST_750,2022.1.4,60.01619236
L_j.bmp,None,L_l.bmp,None,L_j.bmp,None,L_d.bmp,None,0.75,0.3,0,160,160,160,,,,,,,,,,,,,,,,,,,,,,,,,,None,1,398.3877187,None,398.3877187,None,,,,,,,,,,,,,,,,,,,,,,,,,,,,,,,,,,,,,,,,,,,,,,,,,,,example1,1,2025-01-01_00h00.00.000,PGNGS_RST_750,2022.1.4,60.01619236
L_m.bmp,None,L_m.bmp,None,L_m.bmp,None,L_v.bmp,None,0.3,0.45,0,161,161,161,,,,,,,,,,,,,,,,,,,,,,,,,,None,1,399.1369743,None,399.1369743,None,,,,,,,,,,,,,,,,,,,,,,,,,,,,,,,,,,,,,,,,,,,,,,,,,,,example1,1,2025-01-01_00h00.00.000,PGNGS_RST_750,2022.1.4,60.01619236
L_b.bmp,None,L_n.bmp,None,L_b.bmp,None,L_b.bmp,None,0.45,0.75,0,162,162,162,,,,,,,,,,,,,,,,,,,,,,,,,,None,1,399.8874536,None,399.8874536,None,,,,,,,,,,,,,,,,,,,,,,,,,,,,,,,,,,,,,,,,,,,,,,,,,,,example1,1,2025-01-01_00h00.00.000,PGNGS_RST_750,2022.1.4,60.01619236
L_w.bmp,None,L_p.bmp,None,L_m.bmp,None,L_n.bmp,None,0.75,0.75,0,163,163,163,,,,,,,,,,,,,,,,,,,,,,,,,,None,1,400.6369609,None,400.6369609,None,,,,,,,,,,,,,,,,,,,,,,,,,,,,,,,,,,,,,,,,,,,,,,,,,,,example1,1,2025-01-01_00h00.00.000,PGNGS_RST_750,2022.1.4,60.01619236
L_m.bmp,None,L_v.bmp,None,L_b.bmp,None,L_c.bmp,None,0.75,0.75,0,164,164,164,,,,,,,,,,,,,,,,,,,,,,,,,,None,1,401.3871933,None,401.3871933,None,,,,,,,,,,,,,,,,,,,,,,,,,,,,,,,,,,,,,,,,,,,,,,,,,,,example1,1,2025-01-01_00h00.00.000,PGNGS_RST_750,2022.1.4,60.01619236
L_n.bmp,None,L_p.bmp,None,L_n.bmp,None,L_p.bmp,None,0.75,0.75,0,165,165,165,,,,,,,,,,,,,,,,,,,,,,,,,,None,1,402.1376299,None,402.1376299,None,,,,,,,,,,,,,,,,,,,,,,,,,,,,,,,,,,,,,,,,,,,,,,,,,,,example1,1,2025-01-01_00h00.00.000,PGNGS_RST_750,2022.1.4,60.01619236
L_f.bmp,None,L_r.bmp,None,L_f.bmp,None,L_f.bmp,None,0.75,0.75,0,166,166,166,,,,,,,,,,,,,,,,,,,,,,,,,,None,1,402.8877349,None,402.8877349,None,,,,,,,,,,,,,,,,,,,,,,,,,,,,,,,,,,,,,,,,,,,,,,,,,,,example1,1,2025-01-01_00h00.00.000,PGNGS_RST_750,2022.1.4,60.01619236
L_m.bmp,None,L_l.bmp,None,L_m.bmp,None,L_p.bmp,None,0.75,0.75,0,167,167,167,,,,,,,,,,,,,,,,,,,,,,,,,,None,1,403.6369326,None,403.6369326,None,,,,,,,,,,,,,,,,,,,,,,,,,,,,,,,,,,,,,,,,,,,,,,,,,,,example1,1,2025-01-01_00h00.00.000,PGNGS_RST_750,2022.1.4,60.01619236
L_b.bmp,None,L_n.bmp,None,L_m.bmp,None,L_v.bmp,None,0.75,0.75,,,,,0,0,0,0,,,,,,,,,,,,,,,,,,,,478.1869151,None,,,,,,,,404.3873453,None,414.9700601,424.9692076,425.0541398,435.0528456,435.1539249,445.1534595,445.2542198,457.2537458,457.35444,None,None,1,479.852918,None,479.852918,None,,,,,,,,,,,,,,,,,,,,,,,,,,,,,,,,example1,1,2025-01-01_00h00.00.000,PGNGS_RST_750,2022.1.4,60.01619236
L_k.bmp,None,L_q.bmp,None,L_b.bmp,None,L_c.bmp,None,0.75,0.75,,,,,0,1,1,1,,,,,,,,,,,,,,,,,,,,,,,,,,,,,,,,,,,,,,,,,None,1,479.954127,None,479.954127,None,,,,,,,,,,,,,,,,,,,,,,,,,,,,,,,,example1,1,2025-01-01_00h00.00.000,PGNGS_RST_750,2022.1.4,60.01619236
L_s.bmp,n,L_f.bmp,None,L_s.bmp,n,L_j.bmp,None,0.75,0.75,,,,,0,2,2,2,,,,,,,,,,,,,,,,,,,,,,,,,,,,,,,,,,,,,,,,,None,1,480.7046029,None,480.7046029,None,,,,,,,,,,,,,,,,,,,,,,,,,,,,,,,,example1,1,2025-01-01_00h00.00.000,PGNGS_RST_750,2022.1.4,60.01619236
L_g.bmp,None,L_r.bmp,n,L_b.bmp,None,L_k.bmp,None,0.75,0.75,,,,,0,3,3,3,,,,,,,,,,,,,,,,,,,,,,,,,,,,,,,,,,,,,,,,,n,1,481.4541433,None,481.4541433,None,0.4557373,,,,,,,,,,,,,,,,,,,,,,,,,,,,,,,example1,1,2025-01-01_00h00.00.000,PGNGS_RST_750,2022.1.4,60.01619236
L_j.bmp,None,L_p.bmp,None,L_d.bmp,None,L_w.bmp,None,0.75,0.75,,,,,0,4,4,4,,,,,,,,,,,,,,,,,,,,,,,,,,,,,,,,,,,,,,,,,None,1,482.2042916,None,482.2042916,None,,,,,,,,,,,,,,,,,,,,,,,,,,,,,,,,example1,1,2025-01-01_00h00.00.000,PGNGS_RST_750,2022.1.4,60.01619236
L_b.bmp,None,L_k.bmp,None,L_v.bmp,None,L_t.bmp,n,0.75,0.75,,,,,0,5,5,5,,,,,,,,,,,,,,,,,,,,,,,,,,,,,,,,,,,,,,,,,None,1,482.9541424,None,482.9541424,None,,,,,,,,,,,,,,,,,,,,,,,,,,,,,,,,example1,1,2025-01-01_00h00.00.000,PGNGS_RST_750,2022.1.4,60.01619236
L_r.bmp,n,L_m.bmp,None,L_b.bmp,None,L_f.bmp,None,0.75,0.75,,,,,0,6,6,6,,,,,,,,,,,,,,,,,,,,,,,,,,,,,,,,,,,,,,,,,None,1,483.7044705,None,483.7044705,None,,,,,,,,,,,,,,,,,,,,,,,,,,,,,,,,example1,1,2025-01-01_00h00.00.000,PGNGS_RST_750,2022.1.4,60.01619236
L_j.bmp,None,L_f.bmp,None,L_n.bmp,None,L_m.bmp,None,0.75,0.75,,,,,0,7,7,7,,,,,,,,,,,,,,,,,,,,,,,,,,,,,,,,,,,,,,,,,None,1,484.4541171,None,484.4541171,None,,,,,,,,,,,,,,,,,,,,,,,,,,,,,,,,example1,1,2025-01-01_00h00.00.000,PGNGS_RST_750,2022.1.4,60.01619236
L_b.bmp,None,L_k.bmp,None,L_c.bmp,None,L_g.bmp,None,0.75,0.75,,,,,0,8,8,8,,,,,,,,,,,,,,,,,,,,,,,,,,,,,,,,,,,,,,,,,None,1,485.204418,None,485.204418,None,,,,,,,,,,,,,,,,,,,,,,,,,,,,,,,,example1,1,2025-01-01_00h00.00.000,PGNGS_RST_750,2022.1.4,60.01619236
L_n.bmp,None,L_s.bmp,n,L_p.bmp,None,L_l.bmp,None,0.75,0.75,,,,,0,9,9,9,,,,,,,,,,,,,,,,,,,,,,,,,,,,,,,,,,,,,,,,,None,0,485.9540982,None,485.9540982,None,,,,,,,,,,,,,,,,,,,,,,,,,,,,,,,,example1,1,2025-01-01_00h00.00.000,PGNGS_RST_750,2022.1.4,60.01619236
L_l.bmp,None,L_w.bmp,None,L_f.bmp,None,L_w.bmp,None,0.75,0.75,,,,,0,10,10,10,,,,,,,,,,,,,,,,,,,,,,,,,,,,,,,,,,,,,,,,,n,0,486.7047948,None,486.7047948,None,0.0526325,,,,,,,,,,,,,,,,,,,,,,,,,,,,,,,example1,1,2025-01-01_00h00.00.000,PGNGS_RST_750,2022.1.4,60.01619236
L_j.bmp,None,L_j.bmp,None,L_p.bmp,None,L_h.bmp,None,0.75,0.75,,,,,0,11,11,11,,,,,,,,,,,,,,,,,,,,,,,,,,,,,,,,,,,,,,,,,None,1,487.4541649,None,487.4541649,None,,,,,,,,,,,,,,,,,,,,,,,,,,,,,,,,example1,1,2025-01-01_00h00.00.000,PGNGS_RST_750,2022.1.4,60.01619236
L_h.bmp,None,L_p.bmp,None,L_t.bmp,n,L_w.bmp,None,0.75,0.25,,,,,0,12,12,12,,,,,,,,,,,,,,,,,,,,,,,,,,,,,,,,,,,,,,,,,None,1,488.1875876,None,488.1875876,None,,,,,,,,,,,,,,,,,,,,,,,,,,,,,,,,example1,1,2025-01-01_00h00.00.000,PGNGS_RST_750,2022.1.4,60.01619236
L_r.bmp,n,L_g.bmp,None,L_q.bmp,None,L_g.bmp,None,0.75,0.5,,,,,0,13,13,13,,,,,,,,,,,,,,,,,,,,,,,,,,,,,,,,,,,,,,,,,None,1,488.9380708,488.9380708,488.9380708,488.9380708,,,,,,,,,,,,,,,,,,,,,,,,,,,,,,,,example1,1,2025-01-01_00h00.00.000,PGNGS_RST_750,2022.1.4,60.01619236
L_q.bmp,None,L_q.bmp,None,L_p.bmp,None,L_m.bmp,None,0.75,0.75,,,,,0,14,14,14,,,,,,,,,,,,,,,,,,,,,,,,,,,,,,,,,,,,,,,,,None,1,489.6873617,489.6873617,489.6873617,489.6873617,,,,,,,,,,,,,,,,,,,,,,,,,,,,,,,,example1,1,2025-01-01_00h00.00.000,PGNGS_RST_750,2022.1.4,60.01619236
L_b.bmp,None,L_w.bmp,None,L_m.bmp,None,L_w.bmp,None,0.75,0.75,,,,,0,15,15,15,,,,,,,,,,,,,,,,,,,,,,,,,,,,,,,,,,,,,,,,,None,1,490.4381473,490.4381473,490.4381473,490.4381473,,,,,,,,,,,,,,,,,,,,,,,,,,,,,,,,example1,1,2025-01-01_00h00.00.000,PGNGS_RST_750,2022.1.4,60.01619236
L_g.bmp,None,L_s.bmp,None,L_s.bmp,n,L_h.bmp,None,0.25,0.75,,,,,0,16,16,16,,,,,,,,,,,,,,,,,,,,,,,,,,,,,,,,,,,,,,,,,n,0,491.1876997,491.1876997,491.1876997,491.1876997,0.4500917,,,,,,,,,,,,,,,,,,,,,,,,,,,,,,,example1,1,2025-01-01_00h00.00.000,PGNGS_RST_750,2022.1.4,60.01619236
L_r.bmp,n,L_f.bmp,None,L_h.bmp,None,L_r.bmp,n,0.5,0.75,,,,,0,17,17,17,,,,,,,,,,,,,,,,,,,,,,,,,,,,,,,,,,,,,,,,,None,1,491.9382279,491.9382279,491.9382279,491.9382279,,,,,,,,,,,,,,,,,,,,,,,,,,,,,,,,example1,1,2025-01-01_00h00.00.000,PGNGS_RST_750,2022.1.4,60.01619236
L_f.bmp,None,L_m.bmp,None,L_b.bmp,None,L_j.bmp,None,0.75,0.75,,,,,0,18,18,18,,,,,,,,,,,,,,,,,,,,,,,,,,,,,,,,,,,,,,,,,None,1,492.6879093,492.6879093,492.6879093,492.6879093,,,,,,,,,,,,,,,,,,,,,,,,,,,,,,,,example1,1,2025-01-01_00h00.00.000,PGNGS_RST_750,2022.1.4,60.01619236
L_g.bmp,None,L_j.bmp,None,L_m.bmp,None,L_k.bmp,None,0.75,0.75,,,,,0,19,19,19,,,,,,,,,,,,,,,,,,,,,,,,,,,,,,,,,,,,,,,,,None,1,493.4380861,493.4380861,493.4380861,493.4380861,,,,,,,,,,,,,,,,,,,,,,,,,,,,,,,,example1,1,2025-01-01_00h00.00.000,PGNGS_RST_750,2022.1.4,60.01619236
L_v.bmp,None,L_k.bmp,None,L_s.bmp,n,L_r.bmp,None,0.75,0.75,,,,,0,20,20,20,,,,,,,,,,,,,,,,,,,,,,,,,,,,,,,,,,,,,,,,,None,1,494.1874661,494.1874661,494.1874661,494.1874661,,,,,,,,,,,,,,,,,,,,,,,,,,,,,,,,example1,1,2025-01-01_00h00.00.000,PGNGS_RST_750,2022.1.4,60.01619236
L_f.bmp,None,L_r.bmp,n,L_q.bmp,None,L_k.bmp,None,0.75,0.75,,,,,0,21,21,21,,,,,,,,,,,,,,,,,,,,,,,,,,,,,,,,,,,,,,,,,None,0,494.9382976,494.9382976,494.9382976,494.9382976,,,,,,,,,,,,,,,,,,,,,,,,,,,,,,,,example1,1,2025-01-01_00h00.00.000,PGNGS_RST_750,2022.1.4,60.01619236
L_g.bmp,None,L_k.bmp,None,L_v.bmp,None,L_f.bmp,None,0.75,0.75,,,,,0,22,22,22,,,,,,,,,,,,,,,,,,,,,,,,,,,,,,,,,,,,,,,,,n,0,495.6871183,495.6871183,495.6871183,495.6871183,0.2224725,,,,,,,,,,,,,,,,,,,,,,,,,,,,,,,example1,1,2025-01-01_00h00.00.000,PGNGS_RST_750,2022.1.4,60.01619236
L_h.bmp,None,L_f.bmp,None,L_l.bmp,None,L_l.bmp,None,0.75,0.75,,,,,0,23,23,23,,,,,,,,,,,,,,,,,,,,,,,,,,,,,,,,,,,,,,,,,None,1,496.4377172,496.4377172,496.4377172,496.4377172,,,,,,,,,,,,,,,,,,,,,,,,,,,,,,,,example1,1,2025-01-01_00h00.00.000,PGNGS_RST_750,2022.1.4,60.01619236
L_b.bmp,None,L_l.bmp,None,L_s.bmp,n,L_f.bmp,None,0.75,0.75,,,,,0,24,24,24,,,,,,,,,,,,,,,,,,,,,,,,,,,,,,,,,,,,,,,,,None,1,497.1874899,497.1874899,497.1874899,497.1874899,,,,,,,,,,,,,,,,,,,,,,,,,,,,,,,,example1,1,2025-01-01_00h00.00.000,PGNGS_RST_750,2022.1.4,60.01619236
L_v.bmp,None,L_s.bmp,n,L_j.bmp,None,L_r.bmp,None,0.75,0.75,,,,,0,25,25,25,,,,,,,,,,,,,,,,,,,,,,,,,,,,,,,,,,,,,,,,,n,1,497.9381963,497.9381963,497.9381963,497.9381963,0.5636694,,,,,,,,,,,,,,,,,,,,,,,,,,,,,,,example1,1,2025-01-01_00h00.00.000,PGNGS_RST_750,2022.1.4,60.01619236
L_c.bmp,None,L_n.bmp,None,L_g.bmp,None,L_n.bmp,None,0.75,0.75,,,,,0,26,26,26,,,,,,,,,,,,,,,,,,,,,,,,,,,,,,,,,,,,,,,,,None,1,498.6874857,498.6874857,498.6874857,498.6874857,,,,,,,,,,,,,,,,,,,,,,,,,,,,,,,,example1,1,2025-01-01_00h00.00.000,PGNGS_RST_750,2022.1.4,60.01619236
L_l.bmp,None,L_d.bmp,None,L_f.bmp,None,L_d.bmp,None,0.75,0.4,,,,,0,27,27,27,,,,,,,,,,,,,,,,,,,,,,,,,,,,,,,,,,,,,,,,,None,1,499.4380793,499.4380793,499.4380793,499.4380793,,,,,,,,,,,,,,,,,,,,,,,,,,,,,,,,example1,1,2025-01-01_00h00.00.000,PGNGS_RST_750,2022.1.4,60.01619236
L_m.bmp,None,L_r.bmp,n,L_t.bmp,n,L_s.bmp,n,0.75,0.35,,,,,0,28,28,28,,,,,,,,,,,,,,,,,,,,,,,,,,,,,,,,,,,,,,,,,None,0,500.1877129,500.1877129,500.1877129,500.1877129,,,,,,,,,,,,,,,,,,,,,,,,,,,,,,,,example1,1,2025-01-01_00h00.00.000,PGNGS_RST_750,2022.1.4,60.01619236
L_n.bmp,None,L_v.bmp,None,L_d.bmp,None,L_v.bmp,None,0.75,0.75,,,,,0,29,29,29,,,,,,,,,,,,,,,,,,,,,,,,,,,,,,,,,,,,,,,,,None,1,500.9380155,500.9380155,500.9380155,500.9380155,,,,,,,,,,,,,,,,,,,,,,,,,,,,,,,,example1,1,2025-01-01_00h00.00.000,PGNGS_RST_750,2022.1.4,60.01619236
L_p.bmp,None,L_f.bmp,None,L_c.bmp,None,L_f.bmp,None,0.75,0.75,,,,,0,30,30,30,,,,,,,,,,,,,,,,,,,,,,,,,,,,,,,,,,,,,,,,,None,1,501.6877651,501.6877651,501.6877651,501.6877651,,,,,,,,,,,,,,,,,,,,,,,,,,,,,,,,example1,1,2025-01-01_00h00.00.000,PGNGS_RST_750,2022.1.4,60.01619236
L_v.bmp,None,L_w.bmp,None,L_n.bmp,None,L_w.bmp,None,0.75,0.75,,,,,0,31,31,31,,,,,,,,,,,,,,,,,,,,,,,,,,,,,,,,,,,,,,,,,None,1,502.4376718,502.4376718,502.4376718,502.4376718,,,,,,,,,,,,,,,,,,,,,,,,,,,,,,,,example1,1,2025-01-01_00h00.00.000,PGNGS_RST_750,2022.1.4,60.01619236
L_p.bmp,None,L_q.bmp,None,L_h.bmp,None,L_q.bmp,None,0.75,0.75,,,,,0,32,32,32,,,,,,,,,,,,,,,,,,,,,,,,,,,,,,,,,,,,,,,,,None,1,503.1874683,503.1874683,503.1874683,503.1874683,,,,,,,,,,,,,,,,,,,,,,,,,,,,,,,,example1,1,2025-01-01_00h00.00.000,PGNGS_RST_750,2022.1.4,60.01619236
L_l.bmp,None,L_k.bmp,None,L_g.bmp,None,L_k.bmp,None,0.75,0.75,,,,,0,33,33,33,,,,,,,,,,,,,,,,,,,,,,,,,,,,,,,,,,,,,,,,,None,1,503.9380646,503.9380646,503.9380646,503.9380646,,,,,,,,,,,,,,,,,,,,,,,,,,,,,,,,example1,1,2025-01-01_00h00.00.000,PGNGS_RST_750,2022.1.4,60.01619236
L_r.bmp,n,L_b.bmp,None,L_l.bmp,None,L_b.bmp,None,0.75,0.75,,,,,0,34,34,34,,,,,,,,,,,,,,,,,,,,,,,,,,,,,,,,,,,,,,,,,None,1,504.6875473,504.6875473,504.6875473,504.6875473,,,,,,,,,,,,,,,,,,,,,,,,,,,,,,,,example1,1,2025-01-01_00h00.00.000,PGNGS_RST_750,2022.1.4,60.01619236
L_q.bmp,None,L_j.bmp,None,L_b.bmp,None,L_j.bmp,None,0.75,0.75,,,,,0,35,35,35,,,,,,,,,,,,,,,,,,,,,,,,,,,,,,,,,,,,,,,,,None,1,505.4378892,505.4378892,505.4378892,505.4378892,,,,,,,,,,,,,,,,,,,,,,,,,,,,,,,,example1,1,2025-01-01_00h00.00.000,PGNGS_RST_750,2022.1.4,60.01619236
L_g.bmp,None,L_k.bmp,None,L_t.bmp,n,L_l.bmp,None,0.75,0.3,,,,,0,36,36,36,,,,,,,,,,,,,,,,,,,,,,,,,,,,,,,,,,,,,,,,,None,1,506.1874687,506.1874687,506.1874687,506.1874687,,,,,,,,,,,,,,,,,,,,,,,,,,,,,,,,example1,1,2025-01-01_00h00.00.000,PGNGS_RST_750,2022.1.4,60.01619236
L_r.bmp,n,L_b.bmp,None,L_k.bmp,None,L_b.bmp,None,0.75,0.45,,,,,0,37,37,37,,,,,,,,,,,,,,,,,,,,,,,,,,,,,,,,,,,,,,,,,None,1,506.9379491,506.9379491,506.9379491,506.9379491,,,,,,,,,,,,,,,,,,,,,,,,,,,,,,,,example1,1,2025-01-01_00h00.00.000,PGNGS_RST_750,2022.1.4,60.01619236
L_b.bmp,None,L_r.bmp,None,L_j.bmp,None,L_t.bmp,n,0.75,0.75,,,,,0,38,38,38,,,,,,,,,,,,,,,,,,,,,,,,,,,,,,,,,,,,,,,,,None,1,507.6878917,507.6878917,507.6878917,507.6878917,,,,,,,,,,,,,,,,,,,,,,,,,,,,,,,,example1,1,2025-01-01_00h00.00.000,PGNGS_RST_750,2022.1.4,60.01619236
L_j.bmp,None,L_q.bmp,None,L_f.bmp,None,L_q.bmp,None,0.4,0.75,,,,,0,39,39,39,,,,,,,,,,,,,,,,,,,,,,,,,,,,,,,,,,,,,,,,,None,1,508.4381041,508.4381041,508.4381041,508.4381041,,,,,,,,,,,,,,,,,,,,,,,,,,,,,,,,example1,1,2025-01-01_00h00.00.000,PGNGS_RST_750,2022.1.4,60.01619236
L_g.bmp,None,L_m.bmp,None,L_g.bmp,None,L_m.bmp,None,0.35,0.75,,,,,0,40,40,40,,,,,,,,,,,,,,,,,,,,,,,,,,,,,,,,,,,,,,,,,None,1,509.1876044,509.1876044,509.1876044,509.1876044,,,,,,,,,,,,,,,,,,,,,,,,,,,,,,,,example1,1,2025-01-01_00h00.00.000,PGNGS_RST_750,2022.1.4,60.01619236
L_s.bmp,n,L_q.bmp,None,L_h.bmp,None,L_q.bmp,None,0.75,0.75,,,,,0,41,41,41,,,,,,,,,,,,,,,,,,,,,,,,,,,,,,,,,,,,,,,,,None,1,509.9380522,509.9380522,509.9380522,509.9380522,,,,,,,,,,,,,,,,,,,,,,,,,,,,,,,,example1,1,2025-01-01_00h00.00.000,PGNGS_RST_750,2022.1.4,60.01619236
L_v.bmp,None,L_f.bmp,None,L_b.bmp,None,L_j.bmp,None,0.75,0.75,,,,,0,42,42,42,,,,,,,,,,,,,,,,,,,,,,,,,,,,,,,,,,,,,,,,,None,1,510.6873395,510.6873395,510.6873395,510.6873395,,,,,,,,,,,,,,,,,,,,,,,,,,,,,,,,example1,1,2025-01-01_00h00.00.000,PGNGS_RST_750,2022.1.4,60.01619236
L_m.bmp,None,L_j.bmp,None,L_v.bmp,None,L_m.bmp,None,0.75,0.75,,,,,0,43,43,43,,,,,,,,,,,,,,,,,,,,,,,,,,,,,,,,,,,,,,,,,None,1,511.4376761,511.4376761,511.4376761,511.4376761,,,,,,,,,,,,,,,,,,,,,,,,,,,,,,,,example1,1,2025-01-01_00h00.00.000,PGNGS_RST_750,2022.1.4,60.01619236
L_b.bmp,None,L_m.bmp,None,L_b.bmp,None,L_b.bmp,None,0.75,0.75,,,,,0,44,44,44,,,,,,,,,,,,,,,,,,,,,,,,,,,,,,,,,,,,,,,,,None,1,512.187881,512.187881,512.187881,512.187881,,,,,,,,,,,,,,,,,,,,,,,,,,,,,,,,example1,1,2025-01-01_00h00.00.000,PGNGS_RST_750,2022.1.4,60.01619236
L_s.bmp,n,L_b.bmp,None,L_r.bmp,n,L_m.bmp,None,0.75,0.75,,,,,0,45,45,45,,,,,,,,,,,,,,,,,,,,,,,,,,,,,,,,,,,,,,,,,None,1,512.9383387,512.9383387,512.9383387,512.9383387,,,,,,,,,,,,,,,,,,,,,,,,,,,,,,,,example1,1,2025-01-01_00h00.00.000,PGNGS_RST_750,2022.1.4,60.01619236
L_b.bmp,None,L_j.bmp,None,L_b.bmp,None,L_d.bmp,None,0.75,0.75,,,,,0,46,46,46,,,,,,,,,,,,,,,,,,,,,,,,,,,,,,,,,,,,,,,,,None,1,513.6879245,513.6879245,513.6879245,513.6879245,,,,,,,,,,,,,,,,,,,,,,,,,,,,,,,,example1,1,2025-01-01_00h00.00.000,PGNGS_RST_750,2022.1.4,60.01619236
L_d.bmp,None,L_m.bmp,None,L_n.bmp,None,L_n.bmp,None,0.75,0.75,,,,,0,47,47,47,,,,,,,,,,,,,,,,,,,,,,,,,,,,,,,,,,,,,,,,,None,1,514.4543082,None,514.4543082,None,,,,,,,,,,,,,,,,,,,,,,,,,,,,,,,,example1,1,2025-01-01_00h00.00.000,PGNGS_RST_750,2022.1.4,60.01619236
L_v.bmp,None,L_n.bmp,None,L_l.bmp,None,L_l.bmp,None,0.75,0.75,,,,,0,48,48,48,,,,,,,,,,,,,,,,,,,,,,,,,,,,,,,,,,,,,,,,,None,1,515.2050186,None,515.2050186,None,,,,,,,,,,,,,,,,,,,,,,,,,,,,,,,,example1,1,2025-01-01_00h00.00.000,PGNGS_RST_750,2022.1.4,60.01619236
L_b.bmp,None,L_f.bmp,None,L_j.bmp,None,L_j.bmp,None,0.75,0.75,,,,,0,49,49,49,,,,,,,,,,,,,,,,,,,,,,,,,,,,,,,,,,,,,,,,,None,1,515.95428,None,515.95428,None,,,,,,,,,,,,,,,,,,,,,,,,,,,,,,,,example1,1,2025-01-01_00h00.00.000,PGNGS_RST_750,2022.1.4,60.01619236
L_n.bmp,None,L_m.bmp,None,L_h.bmp,None,L_h.bmp,None,0.75,0.75,,,,,0,50,50,50,,,,,,,,,,,,,,,,,,,,,,,,,,,,,,,,,,,,,,,,,None,1,516.6874448,None,516.6874448,None,,,,,,,,,,,,,,,,,,,,,,,,,,,,,,,,example1,1,2025-01-01_00h00.00.000,PGNGS_RST_750,2022.1.4,60.01619236
L_c.bmp,None,L_p.bmp,None,L_t.bmp,n,L_s.bmp,n,0.75,0.75,,,,,0,51,51,51,,,,,,,,,,,,,,,,,,,,,,,,,,,,,,,,,,,,,,,,,None,1,517.4376976,517.4376976,517.4376976,517.4376976,,,,,,,,,,,,,,,,,,,,,,,,,,,,,,,,example1,1,2025-01-01_00h00.00.000,PGNGS_RST_750,2022.1.4,60.01619236
L_p.bmp,None,L_l.bmp,None,L_q.bmp,None,L_q.bmp,None,0.75,0.75,,,,,0,52,52,52,,,,,,,,,,,,,,,,,,,,,,,,,,,,,,,,,,,,,,,,,None,1,518.1870543,None,518.1870543,None,,,,,,,,,,,,,,,,,,,,,,,,,,,,,,,,example1,1,2025-01-01_00h00.00.000,PGNGS_RST_750,2022.1.4,60.01619236
L_f.bmp,None,L_h.bmp,None,L_b.bmp,None,L_b.bmp,None,0.75,0.75,,,,,0,53,53,53,,,,,,,,,,,,,,,,,,,,,,,,,,,,,,,,,,,,,,,,,None,1,518.9381758,518.9381758,518.9381758,518.9381758,,,,,,,,,,,,,,,,,,,,,,,,,,,,,,,,example1,1,2025-01-01_00h00.00.000,PGNGS_RST_750,2022.1.4,60.01619236
L_p.bmp,None,L_s.bmp,n,L_g.bmp,None,L_g.bmp,None,0.75,0.75,,,,,0,54,54,54,,,,,,,,,,,,,,,,,,,,,,,,,,,,,,,,,,,,,,,,,n,1,519.6882474,519.6882474,519.6882474,519.6882474,0.4778036,,,,,,,,,,,,,,,,,,,,,,,,,,,,,,,example1,1,2025-01-01_00h00.00.000,PGNGS_RST_750,2022.1.4,60.01619236
L_r.bmp,n,L_v.bmp,None,L_t.bmp,n,L_t.bmp,n,0.75,0.75,,,,,0,55,55,55,,,,,,,,,,,,,,,,,,,,,,,,,,,,,,,,,,,,,,,,,None,1,520.4538302,None,520.4538302,None,,,,,,,,,,,,,,,,,,,,,,,,,,,,,,,,example1,1,2025-01-01_00h00.00.000,PGNGS_RST_750,2022.1.4,60.01619236
L_q.bmp,None,L_h.bmp,None,L_g.bmp,None,L_g.bmp,None,0.75,0.75,,,,,0,56,56,56,,,,,,,,,,,,,,,,,,,,,,,,,,,,,,,,,,,,,,,,,None,1,521.2045094,None,521.2045094,None,,,,,,,,,,,,,,,,,,,,,,,,,,,,,,,,example1,1,2025-01-01_00h00.00.000,PGNGS_RST_750,2022.1.4,60.01619236
L_f.bmp,None,L_k.bmp,None,L_k.bmp,None,L_l.bmp,None,0.75,0.75,,,,,0,57,57,57,,,,,,,,,,,,,,,,,,,,,,,,,,,,,,,,,,,,,,,,,None,1,521.954315,None,521.954315,None,,,,,,,,,,,,,,,,,,,,,,,,,,,,,,,,example1,1,2025-01-01_00h00.00.000,PGNGS_RST_750,2022.1.4,60.01619236
L_s.bmp,n,L_r.bmp,n,L_f.bmp,None,L_r.bmp,n,0.75,0.75,,,,,0,58,58,58,,,,,,,,,,,,,,,,,,,,,,,,,,,,,,,,,,,,,,,,,n,1,522.7045216,None,522.7045216,None,0.5173464,,,,,,,,,,,,,,,,,,,,,,,,,,,,,,,example1,1,2025-01-01_00h00.00.000,PGNGS_RST_750,2022.1.4,60.01619236
L_m.bmp,None,L_q.bmp,None,L_l.bmp,None,L_f.bmp,None,0.75,0.75,,,,,0,59,59,59,,,,,,,,,,,,,,,,,,,,,,,,,,,,,,,,,,,,,,,,,None,1,523.4540897,None,523.4540897,None,,,,,,,,,,,,,,,,,,,,,,,,,,,,,,,,example1,1,2025-01-01_00h00.00.000,PGNGS_RST_750,2022.1.4,60.01619236
L_h.bmp,None,L_d.bmp,None,L_r.bmp,n,L_k.bmp,None,0.75,0.75,,,,,0,60,60,60,,,,,,,,,,,,,,,,,,,,,,,,,,,,,,,,,,,,,,,,,None,1,524.2046988,None,524.2046988,None,,,,,,,,,,,,,,,,,,,,,,,,,,,,,,,,example1,1,2025-01-01_00h00.00.000,PGNGS_RST_750,2022.1.4,60.01619236
L_b.bmp,None,L_m.bmp,None,L_v.bmp,None,L_v.bmp,None,0.3,0.75,,,,,0,61,61,61,,,,,,,,,,,,,,,,,,,,,,,,,,,,,,,,,,,,,,,,,None,1,524.954358,None,524.954358,None,,,,,,,,,,,,,,,,,,,,,,,,,,,,,,,,example1,1,2025-01-01_00h00.00.000,PGNGS_RST_750,2022.1.4,60.01619236
L_m.bmp,None,L_j.bmp,None,L_c.bmp,None,L_c.bmp,None,0.45,0.75,,,,,0,62,62,62,,,,,,,,,,,,,,,,,,,,,,,,,,,,,,,,,,,,,,,,,None,1,525.7048013,None,525.7048013,None,,,,,,,,,,,,,,,,,,,,,,,,,,,,,,,,example1,1,2025-01-01_00h00.00.000,PGNGS_RST_750,2022.1.4,60.01619236
L_q.bmp,None,L_f.bmp,None,L_l.bmp,None,L_l.bmp,None,0.75,0.4,,,,,0,63,63,63,,,,,,,,,,,,,,,,,,,,,,,,,,,,,,,,,,,,,,,,,None,1,526.4539226,None,526.4539226,None,,,,,,,,,,,,,,,,,,,,,,,,,,,,,,,,example1,1,2025-01-01_00h00.00.000,PGNGS_RST_750,2022.1.4,60.01619236
L_s.bmp,n,L_d.bmp,None,L_m.bmp,None,L_m.bmp,None,0.75,0.35,,,,,0,64,64,64,,,,,,,,,,,,,,,,,,,,,,,,,,,,,,,,,,,,,,,,,None,1,527.204803,None,527.204803,None,,,,,,,,,,,,,,,,,,,,,,,,,,,,,,,,example1,1,2025-01-01_00h00.00.000,PGNGS_RST_750,2022.1.4,60.01619236
L_v.bmp,None,L_b.bmp,None,L_n.bmp,None,L_n.bmp,None,0.75,0.75,,,,,0,65,65,65,,,,,,,,,,,,,,,,,,,,,,,,,,,,,,,,,,,,,,,,,None,1,527.9541861,None,527.9541861,None,,,,,,,,,,,,,,,,,,,,,,,,,,,,,,,,example1,1,2025-01-01_00h00.00.000,PGNGS_RST_750,2022.1.4,60.01619236
L_l.bmp,None,L_p.bmp,None,L_r.bmp,n,L_p.bmp,None,0.75,0.75,,,,,0,66,66,66,,,,,,,,,,,,,,,,,,,,,,,,,,,,,,,,,,,,,,,,,None,1,528.6875937,None,528.6875937,None,,,,,,,,,,,,,,,,,,,,,,,,,,,,,,,,example1,1,2025-01-01_00h00.00.000,PGNGS_RST_750,2022.1.4,60.01619236
L_s.bmp,n,L_w.bmp,None,L_f.bmp,None,L_v.bmp,None,0.75,0.75,,,,,0,67,67,67,,,,,,,,,,,,,,,,,,,,,,,,,,,,,,,,,,,,,,,,,None,1,529.4376579,529.4376579,529.4376579,529.4376579,,,,,,,,,,,,,,,,,,,,,,,,,,,,,,,,example1,1,2025-01-01_00h00.00.000,PGNGS_RST_750,2022.1.4,60.01619236
L_j.bmp,None,L_d.bmp,None,L_p.bmp,None,L_p.bmp,None,0.75,0.75,,,,,0,68,68,68,,,,,,,,,,,,,,,,,,,,,,,,,,,,,,,,,,,,,,,,,None,1,530.1877362,None,530.1877362,None,,,,,,,,,,,,,,,,,,,,,,,,,,,,,,,,example1,1,2025-01-01_00h00.00.000,PGNGS_RST_750,2022.1.4,60.01619236
L_g.bmp,None,L_f.bmp,None,L_l.bmp,None,L_l.bmp,None,0.75,0.75,,,,,0,69,69,69,,,,,,,,,,,,,,,,,,,,,,,,,,,,,,,,,,,,,,,,,None,1,530.9380926,530.9380926,530.9380926,530.9380926,,,,,,,,,,,,,,,,,,,,,,,,,,,,,,,,example1,1,2025-01-01_00h00.00.000,PGNGS_RST_750,2022.1.4,60.01619236
L_f.bmp,None,L_r.bmp,None,L_r.bmp,n,L_r.bmp,None,0.75,0.75,,,,,0,70,70,70,,,,,,,,,,,,,,,,,,,,,,,,,,,,,,,,,,,,,,,,,None,1,531.687468,531.687468,531.687468,531.687468,,,,,,,,,,,,,,,,,,,,,,,,,,,,,,,,example1,1,2025-01-01_00h00.00.000,PGNGS_RST_750,2022.1.4,60.01619236
L_d.bmp,None,L_p.bmp,None,L_q.bmp,None,L_q.bmp,None,0.75,0.75,,,,,0,71,71,71,,,,,,,,,,,,,,,,,,,,,,,,,,,,,,,,,,,,,,,,,None,1,532.4378193,532.4378193,532.4378193,532.4378193,,,,,,,,,,,,,,,,,,,,,,,,,,,,,,,,example1,1,2025-01-01_00h00.00.000,PGNGS_RST_750,2022.1.4,60.01619236
L_r.bmp,n,L_d.bmp,None,L_g.bmp,None,L_f.bmp,None,0.75,0.75,,,,,0,72,72,72,,,,,,,,,,,,,,,,,,,,,,,,,,,,,,,,,,,,,,,,,None,1,533.1874467,None,533.1874467,None,,,,,,,,,,,,,,,,,,,,,,,,,,,,,,,,example1,1,2025-01-01_00h00.00.000,PGNGS_RST_750,2022.1.4,60.01619236
L_c.bmp,None,L_l.bmp,None,L_r.bmp,n,L_m.bmp,None,0.75,0.75,,,,,0,73,73,73,,,,,,,,,,,,,,,,,,,,,,,,,,,,,,,,,,,,,,,,,None,1,533.9378257,533.9378257,533.9378257,533.9378257,,,,,,,,,,,,,,,,,,,,,,,,,,,,,,,,example1,1,2025-01-01_00h00.00.000,PGNGS_RST_750,2022.1.4,60.01619236
L_n.bmp,None,L_h.bmp,None,L_b.bmp,None,L_p.bmp,None,0.75,0.75,,,,,0,74,74,74,,,,,,,,,,,,,,,,,,,,,,,,,,,,,,,,,,,,,,,,,None,1,534.6878006,534.6878006,534.6878006,534.6878006,,,,,,,,,,,,,,,,,,,,,,,,,,,,,,,,example1,1,2025-01-01_00h00.00.000,PGNGS_RST_750,2022.1.4,60.01619236
L_h.bmp,None,L_l.bmp,None,L_j.bmp,None,L_l.bmp,None,0.75,0.75,,,,,0,75,75,75,,,,,,,,,,,,,,,,,,,,,,,,,,,,,,,,,,,,,,,,,None,1,535.4376701,535.4376701,535.4376701,535.4376701,,,,,,,,,,,,,,,,,,,,,,,,,,,,,,,,example1,1,2025-01-01_00h00.00.000,PGNGS_RST_750,2022.1.4,60.01619236
L_g.bmp,None,L_m.bmp,None,L_g.bmp,None,L_h.bmp,None,0.75,0.75,,,,,0,76,76,76,,,,,,,,,,,,,,,,,,,,,,,,,,,,,,,,,,,,,,,,,None,1,536.1877118,536.1877118,536.1877118,536.1877118,,,,,,,,,,,,,,,,,,,,,,,,,,,,,,,,example1,1,2025-01-01_00h00.00.000,PGNGS_RST_750,2022.1.4,60.01619236
L_l.bmp,None,L_j.bmp,None,L_v.bmp,None,L_s.bmp,n,0.75,0.75,,,,,0,77,77,77,,,,,,,,,,,,,,,,,,,,,,,,,,,,,,,,,,,,,,,,,None,1,536.9380893,536.9380893,536.9380893,536.9380893,,,,,,,,,,,,,,,,,,,,,,,,,,,,,,,,example1,1,2025-01-01_00h00.00.000,PGNGS_RST_750,2022.1.4,60.01619236
L_s.bmp,n,L_p.bmp,None,L_s.bmp,n,L_v.bmp,None,0.75,0.75,,,,,0,78,78,78,,,,,,,,,,,,,,,,,,,,,,,,,,,,,,,,,,,,,,,,,None,1,537.6875324,537.6875324,537.6875324,537.6875324,,,,,,,,,,,,,,,,,,,,,,,,,,,,,,,,example1,1,2025-01-01_00h00.00.000,PGNGS_RST_750,2022.1.4,60.01619236
L_f.bmp,None,L_b.bmp,None,L_b.bmp,None,L_p.bmp,None,0.75,0.75,,,,,0,79,79,79,,,,,,,,,,,,,,,,,,,,,,,,,,,,,,,,,,,,,,,,,None,1,538.4376866,538.4376866,538.4376866,538.4376866,,,,,,,,,,,,,,,,,,,,,,,,,,,,,,,,example1,1,2025-01-01_00h00.00.000,PGNGS_RST_750,2022.1.4,60.01619236
L_n.bmp,None,L_f.bmp,None,L_v.bmp,None,L_d.bmp,None,0.75,0.75,,,,,0,80,80,80,,,,,,,,,,,,,,,,,,,,,,,,,,,,,,,,,,,,,,,,,None,1,539.1877132,539.1877132,539.1877132,539.1877132,,,,,,,,,,,,,,,,,,,,,,,,,,,,,,,,example1,1,2025-01-01_00h00.00.000,PGNGS_RST_750,2022.1.4,60.01619236
L_w.bmp,None,L_s.bmp,n,L_h.bmp,None,L_s.bmp,None,0.75,0.75,,,,,0,81,81,81,,,,,,,,,,,,,,,,,,,,,,,,,,,,,,,,,,,,,,,,,n,1,539.9380974,539.9380974,539.9380974,539.9380974,0.483148,,,,,,,,,,,,,,,,,,,,,,,,,,,,,,,example1,1,2025-01-01_00h00.00.000,PGNGS_RST_750,2022.1.4,60.01619236
L_b.bmp,None,L_l.bmp,None,L_w.bmp,None,L_j.bmp,None,0.75,0.75,,,,,0,82,82,82,,,,,,,,,,,,,,,,,,,,,,,,,,,,,,,,,,,,,,,,,None,1,540.6876936,540.6876936,540.6876936,540.6876936,,,,,,,,,,,,,,,,,,,,,,,,,,,,,,,,example1,1,2025-01-01_00h00.00.000,PGNGS_RST_750,2022.1.4,60.01619236
L_v.bmp,None,L_j.bmp,None,L_m.bmp,None,L_d.bmp,None,0.75,0.75,,,,,0,83,83,83,,,,,,,,,,,,,,,,,,,,,,,,,,,,,,,,,,,,,,,,,None,1,541.4376772,541.4376772,541.4376772,541.4376772,,,,,,,,,,,,,,,,,,,,,,,,,,,,,,,,example1,1,2025-01-01_00h00.00.000,PGNGS_RST_750,2022.1.4,60.01619236
L_s.bmp,n,L_r.bmp,n,L_j.bmp,None,L_b.bmp,None,0.4,0.75,,,,,0,84,84,84,,,,,,,,,,,,,,,,,,,,,,,,,,,,,,,,,,,,,,,,,None,0,542.1874311,542.1874311,542.1874311,542.1874311,,,,,,,,,,,,,,,,,,,,,,,,,,,,,,,,example1,1,2025-01-01_00h00.00.000,PGNGS_RST_750,2022.1.4,60.01619236
L_q.bmp,None,L_m.bmp,None,L_m.bmp,None,L_t.bmp,n,0.35,0.75,,,,,0,85,85,85,,,,,,,,,,,,,,,,,,,,,,,,,,,,,,,,,,,,,,,,,n,0,542.9380504,542.9380504,542.9380504,542.9380504,0.0114661,,,,,,,,,,,,,,,,,,,,,,,,,,,,,,,example1,1,2025-01-01_00h00.00.000,PGNGS_RST_750,2022.1.4,60.01619236
L_d.bmp,None,L_v.bmp,None,L_g.bmp,None,L_q.bmp,None,0.75,0.75,,,,,0,86,86,86,,,,,,,,,,,,,,,,,,,,,,,,,,,,,,,,,,,,,,,,,None,1,543.6874257,543.6874257,543.6874257,543.6874257,,,,,,,,,,,,,,,,,,,,,,,,,,,,,,,,example1,1,2025-01-01_00h00.00.000,PGNGS_RST_750,2022.1.4,60.01619236
L_r.bmp,n,L_d.bmp,None,L_k.bmp,None,L_m.bmp,None,0.75,0.3,,,,,0,87,87,87,,,,,,,,,,,,,,,,,,,,,,,,,,,,,,,,,,,,,,,,,None,1,544.4376417,544.4376417,544.4376417,544.4376417,,,,,,,,,,,,,,,,,,,,,,,,,,,,,,,,example1,1,2025-01-01_00h00.00.000,PGNGS_RST_750,2022.1.4,60.01619236
L_v.bmp,None,L_s.bmp,n,L_b.bmp,None,L_q.bmp,None,0.75,0.45,,,,,0,88,88,88,,,,,,,,,,,,,,,,,,,,,,,,,,,,,,,,,,,,,,,,,n,1,545.1874522,545.1874522,545.1874522,545.1874522,0.4818803,,,,,,,,,,,,,,,,,,,,,,,,,,,,,,,example1,1,2025-01-01_00h00.00.000,PGNGS_RST_750,2022.1.4,60.01619236
L_c.bmp,None,L_j.bmp,None,L_r.bmp,n,L_s.bmp,n,0.75,0.75,,,,,0,89,89,89,,,,,,,,,,,,,,,,,,,,,,,,,,,,,,,,,,,,,,,,,None,1,545.9384299,545.9384299,545.9384299,545.9384299,,,,,,,,,,,,,,,,,,,,,,,,,,,,,,,,example1,1,2025-01-01_00h00.00.000,PGNGS_RST_750,2022.1.4,60.01619236
L_j.bmp,None,L_d.bmp,None,L_n.bmp,None,L_d.bmp,None,0.75,0.75,,,,,0,90,90,90,,,,,,,,,,,,,,,,,,,,,,,,,,,,,,,,,,,,,,,,,None,1,546.6875239,546.6875239,546.6875239,546.6875239,,,,,,,,,,,,,,,,,,,,,,,,,,,,,,,,example1,1,2025-01-01_00h00.00.000,PGNGS_RST_750,2022.1.4,60.01619236
L_k.bmp,None,L_b.bmp,None,L_q.bmp,None,L_w.bmp,None,0.75,0.75,,,,,0,91,91,91,,,,,,,,,,,,,,,,,,,,,,,,,,,,,,,,,,,,,,,,,None,1,547.4377637,547.4377637,547.4377637,547.4377637,,,,,,,,,,,,,,,,,,,,,,,,,,,,,,,,example1,1,2025-01-01_00h00.00.000,PGNGS_RST_750,2022.1.4,60.01619236
L_w.bmp,None,L_s.bmp,None,L_f.bmp,None,L_p.bmp,None,0.75,0.75,,,,,0,92,92,92,,,,,,,,,,,,,,,,,,,,,,,,,,,,,,,,,,,,,,,,,None,1,548.1873806,548.1873806,548.1873806,548.1873806,,,,,,,,,,,,,,,,,,,,,,,,,,,,,,,,example1,1,2025-01-01_00h00.00.000,PGNGS_RST_750,2022.1.4,60.01619236
L_s.bmp,n,L_q.bmp,None,L_t.bmp,n,L_f.bmp,None,0.75,0.75,,,,,0,93,93,93,,,,,,,,,,,,,,,,,,,,,,,,,,,,,,,,,,,,,,,,,None,1,548.9382846,548.9382846,548.9382846,548.9382846,,,,,,,,,,,,,,,,,,,,,,,,,,,,,,,,example1,1,2025-01-01_00h00.00.000,PGNGS_RST_750,2022.1.4,60.01619236
L_f.bmp,None,L_m.bmp,None,L_p.bmp,None,L_s.bmp,None,0.75,0.75,,,,,0,94,94,94,,,,,,,,,,,,,,,,,,,,,,,,,,,,,,,,,,,,,,,,,None,1,549.6875637,549.6875637,549.6875637,549.6875637,,,,,,,,,,,,,,,,,,,,,,,,,,,,,,,,example1,1,2025-01-01_00h00.00.000,PGNGS_RST_750,2022.1.4,60.01619236
L_m.bmp,None,L_q.bmp,None,L_k.bmp,None,L_w.bmp,None,0.75,0.75,,,,,0,95,95,95,,,,,,,,,,,,,,,,,,,,,,,,,,,,,,,,,,,,,,,,,None,1,550.4381594,550.4381594,550.4381594,550.4381594,,,,,,,,,,,,,,,,,,,,,,,,,,,,,,,,example1,1,2025-01-01_00h00.00.000,PGNGS_RST_750,2022.1.4,60.01619236
L_g.bmp,None,L_d.bmp,None,L_g.bmp,None,L_m.bmp,None,0.75,0.75,,,,,0,96,96,96,,,,,,,,,,,,,,,,,,,,,,,,,,,,,,,,,,,,,,,,,None,1,551.1875787,551.1875787,551.1875787,551.1875787,,,,,,,,,,,,,,,,,,,,,,,,,,,,,,,,example1,1,2025-01-01_00h00.00.000,PGNGS_RST_750,2022.1.4,60.01619236
L_l.bmp,None,L_r.bmp,n,L_f.bmp,None,L_t.bmp,n,0.75,0.75,,,,,0,97,97,97,,,,,,,,,,,,,,,,,,,,,,,,,,,,,,,,,,,,,,,,,n,1,551.9379125,551.9379125,551.9379125,551.9379125,0.4673167,,,,,,,,,,,,,,,,,,,,,,,,,,,,,,,example1,1,2025-01-01_00h00.00.000,PGNGS_RST_750,2022.1.4,60.01619236
L_w.bmp,None,L_w.bmp,None,L_k.bmp,None,L_p.bmp,None,0.75,0.75,,,,,0,98,98,98,,,,,,,,,,,,,,,,,,,,,,,,,,,,,,,,,,,,,,,,,None,1,552.6876043,552.6876043,552.6876043,552.6876043,,,,,,,,,,,,,,,,,,,,,,,,,,,,,,,,example1,1,2025-01-01_00h00.00.000,PGNGS_RST_750,2022.1.4,60.01619236
L_h.bmp,None,L_p.bmp,None,L_q.bmp,None,L_d.bmp,None,0.75,0.75,,,,,0,99,99,99,,,,,,,,,,,,,,,,,,,,,,,,,,,,,,,,,,,,,,,,,None,1,553.4378524,553.4378524,553.4378524,553.4378524,,,,,,,,,,,,,,,,,,,,,,,,,,,,,,,,example1,1,2025-01-01_00h00.00.000,PGNGS_RST_750,2022.1.4,60.01619236
L_w.bmp,None,L_s.bmp,n,L_w.bmp,None,L_r.bmp,n,0.75,0.75,,,,,0,100,100,100,,,,,,,,,,,,,,,,,,,,,,,,,,,,,,,,,,,,,,,,,n,1,554.1872979,554.1872979,554.1872979,554.1872979,0.4421481,,,,,,,,,,,,,,,,,,,,,,,,,,,,,,,example1,1,2025-01-01_00h00.00.000,PGNGS_RST_750,2022.1.4,60.01619236
L_g.bmp,None,L_f.bmp,None,L_j.bmp,None,L_m.bmp,None,0.75,0.75,,,,,0,101,101,101,,,,,,,,,,,,,,,,,,,,,,,,,,,,,,,,,,,,,,,,,None,1,554.9379834,554.9379834,554.9379834,554.9379834,,,,,,,,,,,,,,,,,,,,,,,,,,,,,,,,example1,1,2025-01-01_00h00.00.000,PGNGS_RST_750,2022.1.4,60.01619236
L_m.bmp,None,L_w.bmp,None,L_p.bmp,None,L_q.bmp,None,0.75,0.75,,,,,0,102,102,102,,,,,,,,,,,,,,,,,,,,,,,,,,,,,,,,,,,,,,,,,None,1,555.6874693,555.6874693,555.6874693,555.6874693,,,,,,,,,,,,,,,,,,,,,,,,,,,,,,,,example1,1,2025-01-01_00h00.00.000,PGNGS_RST_750,2022.1.4,60.01619236
L_w.bmp,None,L_m.bmp,None,L_g.bmp,None,L_k.bmp,None,0.75,0.75,,,,,0,103,103,103,,,,,,,,,,,,,,,,,,,,,,,,,,,,,,,,,,,,,,,,,None,1,556.4376759,556.4376759,556.4376759,556.4376759,,,,,,,,,,,,,,,,,,,,,,,,,,,,,,,,example1,1,2025-01-01_00h00.00.000,PGNGS_RST_750,2022.1.4,60.01619236
L_h.bmp,None,L_r.bmp,n,L_q.bmp,None,L_t.bmp,n,0.75,0.75,,,,,0,104,104,104,,,,,,,,,,,,,,,,,,,,,,,,,,,,,,,,,,,,,,,,,n,1,557.1875884,557.1875884,557.1875884,557.1875884,0.4978053,,,,,,,,,,,,,,,,,,,,,,,,,,,,,,,example1,1,2025-01-01_00h00.00.000,PGNGS_RST_750,2022.1.4,60.01619236
L_r.bmp,n,L_p.bmp,None,L_w.bmp,None,L_b.bmp,None,0.75,0.75,,,,,0,105,105,105,,,,,,,,,,,,,,,,,,,,,,,,,,,,,,,,,,,,,,,,,None,1,557.938291,557.938291,557.938291,557.938291,,,,,,,,,,,,,,,,,,,,,,,,,,,,,,,,example1,1,2025-01-01_00h00.00.000,PGNGS_RST_750,2022.1.4,60.01619236
L_b.bmp,None,L_d.bmp,None,L_d.bmp,None,L_m.bmp,None,0.75,0.75,,,,,0,106,106,106,,,,,,,,,,,,,,,,,,,,,,,,,,,,,,,,,,,,,,,,,None,1,558.6871018,558.6871018,558.6871018,558.6871018,,,,,,,,,,,,,,,,,,,,,,,,,,,,,,,,example1,1,2025-01-01_00h00.00.000,PGNGS_RST_750,2022.1.4,60.01619236
L_v.bmp,None,L_c.bmp,None,L_f.bmp,None,L_g.bmp,None,0.75,0.75,,,,,0,107,107,107,,,,,,,,,,,,,,,,,,,,,,,,,,,,,,,,,,,,,,,,,None,1,559.4377777,559.4377777,559.4377777,559.4377777,,,,,,,,,,,,,,,,,,,,,,,,,,,,,,,,example1,1,2025-01-01_00h00.00.000,PGNGS_RST_750,2022.1.4,60.01619236
L_h.bmp,None,L_s.bmp,n,L_s.bmp,n,L_t.bmp,None,0.3,0.75,,,,,0,108,108,108,,,,,,,,,,,,,,,,,,,,,,,,,,,,,,,,,,,,,,,,,n,1,560.1877692,560.1877692,560.1877692,560.1877692,0.4575969,,,,,,,,,,,,,,,,,,,,,,,,,,,,,,,example1,1,2025-01-01_00h00.00.000,PGNGS_RST_750,2022.1.4,60.01619236
L_w.bmp,None,L_q.bmp,None,L_f.bmp,None,L_g.bmp,None,0.45,0.75,,,,,0,109,109,109,,,,,,,,,,,,,,,,,,,,,,,,,,,,,,,,,,,,,,,,,None,1,560.9383819,560.9383819,560.9383819,560.9383819,,,,,,,,,,,,,,,,,,,,,,,,,,,,,,,,example1,1,2025-01-01_00h00.00.000,PGNGS_RST_750,2022.1.4,60.01619236
L_m.bmp,None,L_k.bmp,None,L_n.bmp,None,L_h.bmp,None,0.75,0.75,,,,,0,110,110,110,,,,,,,,,,,,,,,,,,,,,,,,,,,,,,,,,,,,,,,,,None,1,561.6874756,561.6874756,561.6874756,561.6874756,,,,,,,,,,,,,,,,,,,,,,,,,,,,,,,,example1,1,2025-01-01_00h00.00.000,PGNGS_RST_750,2022.1.4,60.01619236
L_j.bmp,None,L_b.bmp,None,L_w.bmp,None,L_g.bmp,None,0.75,0.75,,,,,0,111,111,111,,,,,,,,,,,,,,,,,,,,,,,,,,,,,,,,,,,,,,,,,None,1,562.4381988,562.4381988,562.4381988,562.4381988,,,,,,,,,,,,,,,,,,,,,,,,,,,,,,,,example1,1,2025-01-01_00h00.00.000,PGNGS_RST_750,2022.1.4,60.01619236
L_m.bmp,None,L_r.bmp,n,L_b.bmp,None,L_p.bmp,None,0.75,0.75,,,,,0,112,112,112,,,,,,,,,,,,,,,,,,,,,,,,,,,,,,,,,,,,,,,,,n,1,563.1877386,563.1877386,563.1877386,563.1877386,0.4337567,,,,,,,,,,,,,,,,,,,,,,,,,,,,,,,example1,1,2025-01-01_00h00.00.000,PGNGS_RST_750,2022.1.4,60.01619236
L_g.bmp,None,L_m.bmp,None,L_s.bmp,n,L_c.bmp,None,0.75,0.75,,,,,0,113,113,113,,,,,,,,,,,,,,,,,,,,,,,,,,,,,,,,,,,,,,,,,None,1,563.938303,563.938303,563.938303,563.938303,,,,,,,,,,,,,,,,,,,,,,,,,,,,,,,,example1,1,2025-01-01_00h00.00.000,PGNGS_RST_750,2022.1.4,60.01619236
L_k.bmp,None,L_l.bmp,None,L_v.bmp,None,L_r.bmp,n,0.75,0.75,,,,,0,114,114,114,,,,,,,,,,,,,,,,,,,,,,,,,,,,,,,,,,,,,,,,,None,1,564.6876623,564.6876623,564.6876623,564.6876623,,,,,,,,,,,,,,,,,,,,,,,,,,,,,,,,example1,1,2025-01-01_00h00.00.000,PGNGS_RST_750,2022.1.4,60.01619236
L_b.bmp,None,L_h.bmp,None,L_q.bmp,None,L_h.bmp,None,0.75,0.75,,,,,0,115,115,115,,,,,,,,,,,,,,,,,,,,,,,,,,,,,,,,,,,,,,,,,None,1,565.4383335,565.4383335,565.4383335,565.4383335,,,,,,,,,,,,,,,,,,,,,,,,,,,,,,,,example1,1,2025-01-01_00h00.00.000,PGNGS_RST_750,2022.1.4,60.01619236
L_r.bmp,n,L_g.bmp,None,L_d.bmp,None,L_d.bmp,None,0.75,0.75,,,,,0,116,116,116,,,,,,,,,,,,,,,,,,,,,,,,,,,,,,,,,,,,,,,,,None,1,566.1877374,566.1877374,566.1877374,566.1877374,,,,,,,,,,,,,,,,,,,,,,,,,,,,,,,,example1,1,2025-01-01_00h00.00.000,PGNGS_RST_750,2022.1.4,60.01619236
L_n.bmp,None,L_r.bmp,None,L_r.bmp,n,L_m.bmp,None,0.75,0.25,,,,,0,117,117,117,,,,,,,,,,,,,,,,,,,,,,,,,,,,,,,,,,,,,,,,,n,0,566.9385272,566.9385272,566.9385272,566.9385272,0.4744775,,,,,,,,,,,,,,,,,,,,,,,,,,,,,,,example1,1,2025-01-01_00h00.00.000,PGNGS_RST_750,2022.1.4,60.01619236
L_q.bmp,None,L_g.bmp,None,L_v.bmp,None,L_j.bmp,None,0.75,0.5,,,,,0,118,118,118,,,,,,,,,,,,,,,,,,,,,,,,,,,,,,,,,,,,,,,,,None,1,567.7048735,None,567.7048735,None,,,,,,,,,,,,,,,,,,,,,,,,,,,,,,,,example1,1,2025-01-01_00h00.00.000,PGNGS_RST_750,2022.1.4,60.01619236
L_f.bmp,None,L_p.bmp,None,L_c.bmp,None,L_p.bmp,None,0.75,0.75,,,,,0,119,119,119,,,,,,,,,,,,,,,,,,,,,,,,,,,,,,,,,,,,,,,,,None,1,568.4543349,None,568.4543349,None,,,,,,,,,,,,,,,,,,,,,,,,,,,,,,,,example1,1,2025-01-01_00h00.00.000,PGNGS_RST_750,2022.1.4,60.01619236
L_r.bmp,n,L_c.bmp,None,L_j.bmp,None,L_b.bmp,None,0.75,0.75,,,,,0,120,120,120,,,,,,,,,,,,,,,,,,,,,,,,,,,,,,,,,,,,,,,,,None,1,569.2048926,None,569.2048926,None,,,,,,,,,,,,,,,,,,,,,,,,,,,,,,,,example1,1,2025-01-01_00h00.00.000,PGNGS_RST_750,2022.1.4,60.01619236
L_p.bmp,None,L_s.bmp,n,L_k.bmp,None,L_s.bmp,n,0.25,0.75,,,,,0,121,121,121,,,,,,,,,,,,,,,,,,,,,,,,,,,,,,,,,,,,,,,,,n,1,569.9544707,None,569.9544707,None,0.6749023,,,,,,,,,,,,,,,,,,,,,,,,,,,,,,,example1,1,2025-01-01_00h00.00.000,PGNGS_RST_750,2022.1.4,60.01619236
L_k.bmp,None,L_g.bmp,None,L_w.bmp,None,L_b.bmp,None,0.5,0.75,,,,,0,122,122,122,,,,,,,,,,,,,,,,,,,,,,,,,,,,,,,,,,,,,,,,,None,1,570.7047121,None,570.7047121,None,,,,,,,,,,,,,,,,,,,,,,,,,,,,,,,,example1,1,2025-01-01_00h00.00.000,PGNGS_RST_750,2022.1.4,60.01619236
L_s.bmp,n,L_h.bmp,None,L_t.bmp,n,L_f.bmp,None,0.75,0.75,,,,,0,123,123,123,,,,,,,,,,,,,,,,,,,,,,,,,,,,,,,,,,,,,,,,,None,1,571.4544979,None,571.4544979,None,,,,,,,,,,,,,,,,,,,,,,,,,,,,,,,,example1,1,2025-01-01_00h00.00.000,PGNGS_RST_750,2022.1.4,60.01619236
L_f.bmp,None,L_m.bmp,None,L_f.bmp,None,L_r.bmp,n,0.75,0.75,,,,,0,124,124,124,,,,,,,,,,,,,,,,,,,,,,,,,,,,,,,,,,,,,,,,,None,1,572.2052505,None,572.2052505,None,,,,,,,,,,,,,,,,,,,,,,,,,,,,,,,,example1,1,2025-01-01_00h00.00.000,PGNGS_RST_750,2022.1.4,60.01619236
L_g.bmp,None,L_j.bmp,None,L_m.bmp,None,L_w.bmp,None,0.75,0.75,,,,,0,125,125,125,,,,,,,,,,,,,,,,,,,,,,,,,,,,,,,,,,,,,,,,,None,1,572.9544584,None,572.9544584,None,,,,,,,,,,,,,,,,,,,,,,,,,,,,,,,,example1,1,2025-01-01_00h00.00.000,PGNGS_RST_750,2022.1.4,60.01619236
L_k.bmp,None,L_p.bmp,None,L_g.bmp,None,L_h.bmp,None,0.75,0.75,,,,,0,126,126,126,,,,,,,,,,,,,,,,,,,,,,,,,,,,,,,,,,,,,,,,,None,1,573.7048914,None,573.7048914,None,,,,,,,,,,,,,,,,,,,,,,,,,,,,,,,,example1,1,2025-01-01_00h00.00.000,PGNGS_RST_750,2022.1.4,60.01619236
L_w.bmp,None,L_b.bmp,None,L_l.bmp,None,L_k.bmp,None,0.75,0.75,,,,,0,127,127,127,,,,,,,,,,,,,,,,,,,,,,,,,,,,,,,,,,,,,,,,,None,1,574.4544228,None,574.4544228,None,,,,,,,,,,,,,,,,,,,,,,,,,,,,,,,,example1,1,2025-01-01_00h00.00.000,PGNGS_RST_750,2022.1.4,60.01619236
L_j.bmp,None,L_s.bmp,None,L_w.bmp,None,L_r.bmp,None,0.75,0.75,,,,,0,128,128,128,,,,,,,,,,,,,,,,,,,,,,,,,,,,,,,,,,,,,,,,,None,1,575.1878442,None,575.1878442,None,,,,,,,,,,,,,,,,,,,,,,,,,,,,,,,,example1,1,2025-01-01_00h00.00.000,PGNGS_RST_750,2022.1.4,60.01619236
L_p.bmp,None,L_g.bmp,None,L_h.bmp,None,L_q.bmp,None,0.75,0.75,,,,,0,129,129,129,,,,,,,,,,,,,,,,,,,,,,,,,,,,,,,,,,,,,,,,,None,1,575.938351,575.938351,575.938351,575.938351,,,,,,,,,,,,,,,,,,,,,,,,,,,,,,,,example1,1,2025-01-01_00h00.00.000,PGNGS_RST_750,2022.1.4,60.01619236
L_g.bmp,None,L_b.bmp,None,L_w.bmp,None,L_d.bmp,None,0.75,0.75,,,,,0,130,130,130,,,,,,,,,,,,,,,,,,,,,,,,,,,,,,,,,,,,,,,,,None,1,576.6872335,576.6872335,576.6872335,576.6872335,,,,,,,,,,,,,,,,,,,,,,,,,,,,,,,,example1,1,2025-01-01_00h00.00.000,PGNGS_RST_750,2022.1.4,60.01619236
L_q.bmp,None,L_w.bmp,None,L_g.bmp,None,L_l.bmp,None,0.75,0.75,,,,,0,131,131,131,,,,,,,,,,,,,,,,,,,,,,,,,,,,,,,,,,,,,,,,,None,1,577.4380683,577.4380683,577.4380683,577.4380683,,,,,,,,,,,,,,,,,,,,,,,,,,,,,,,,example1,1,2025-01-01_00h00.00.000,PGNGS_RST_750,2022.1.4,60.01619236
L_w.bmp,None,L_r.bmp,n,L_m.bmp,None,L_j.bmp,None,0.75,0.75,,,,,0,132,132,132,,,,,,,,,,,,,,,,,,,,,,,,,,,,,,,,,,,,,,,,,n,1,578.187893,578.187893,578.187893,578.187893,0.4420403,,,,,,,,,,,,,,,,,,,,,,,,,,,,,,,example1,1,2025-01-01_00h00.00.000,PGNGS_RST_750,2022.1.4,60.01619236
L_d.bmp,None,L_b.bmp,None,L_w.bmp,None,L_f.bmp,None,0.75,0.75,,,,,0,133,133,133,,,,,,,,,,,,,,,,,,,,,,,,,,,,,,,,,,,,,,,,,None,1,578.9381194,578.9381194,578.9381194,578.9381194,,,,,,,,,,,,,,,,,,,,,,,,,,,,,,,,example1,1,2025-01-01_00h00.00.000,PGNGS_RST_750,2022.1.4,60.01619236
L_f.bmp,None,L_k.bmp,None,L_h.bmp,None,L_s.bmp,n,0.75,0.75,,,,,0,134,134,134,,,,,,,,,,,,,,,,,,,,,,,,,,,,,,,,,,,,,,,,,None,1,579.6872877,579.6872877,579.6872877,579.6872877,,,,,,,,,,,,,,,,,,,,,,,,,,,,,,,,example1,1,2025-01-01_00h00.00.000,PGNGS_RST_750,2022.1.4,60.01619236
L_s.bmp,n,L_g.bmp,None,L_r.bmp,n,L_b.bmp,None,0.75,0.75,,,,,0,135,135,135,,,,,,,,,,,,,,,,,,,,,,,,,,,,,,,,,,,,,,,,,None,1,580.4381376,580.4381376,580.4381376,580.4381376,,,,,,,,,,,,,,,,,,,,,,,,,,,,,,,,example1,1,2025-01-01_00h00.00.000,PGNGS_RST_750,2022.1.4,60.01619236
L_j.bmp,None,L_s.bmp,n,L_j.bmp,None,L_p.bmp,None,0.75,0.75,,,,,0,136,136,136,,,,,,,,,,,,,,,,,,,,,,,,,,,,,,,,,,,,,,,,,n,1,581.1875624,581.1875624,581.1875624,581.1875624,0.5455264,,,,,,,,,,,,,,,,,,,,,,,,,,,,,,,example1,1,2025-01-01_00h00.00.000,PGNGS_RST_750,2022.1.4,60.01619236
L_k.bmp,None,L_g.bmp,None,L_k.bmp,None,L_w.bmp,None,0.75,0.75,,,,,0,137,137,137,,,,,,,,,,,,,,,,,,,,,,,,,,,,,,,,,,,,,,,,,None,1,581.9379759,581.9379759,581.9379759,581.9379759,,,,,,,,,,,,,,,,,,,,,,,,,,,,,,,,example1,1,2025-01-01_00h00.00.000,PGNGS_RST_750,2022.1.4,60.01619236
L_r.bmp,n,L_b.bmp,None,L_r.bmp,n,L_f.bmp,None,0.75,0.25,,,,,0,138,138,138,,,,,,,,,,,,,,,,,,,,,,,,,,,,,,,,,,,,,,,,,None,1,582.6872712,582.6872712,582.6872712,582.6872712,,,,,,,,,,,,,,,,,,,,,,,,,,,,,,,,example1,1,2025-01-01_00h00.00.000,PGNGS_RST_750,2022.1.4,60.01619236
L_k.bmp,None,L_r.bmp,n,L_k.bmp,None,L_k.bmp,None,0.75,0.5,,,,,0,139,139,139,,,,,,,,,,,,,,,,,,,,,,,,,,,,,,,,,,,,,,,,,n,1,583.4383183,583.4383183,583.4383183,583.4383183,0.5035654,,,,,,,,,,,,,,,,,,,,,,,,,,,,,,,example1,1,2025-01-01_00h00.00.000,PGNGS_RST_750,2022.1.4,60.01619236
L_f.bmp,None,L_j.bmp,None,L_f.bmp,None,L_p.bmp,None,0.75,0.75,,,,,0,140,140,140,,,,,,,,,,,,,,,,,,,,,,,,,,,,,,,,,,,,,,,,,None,1,584.1873339,584.1873339,584.1873339,584.1873339,,,,,,,,,,,,,,,,,,,,,,,,,,,,,,,,example1,1,2025-01-01_00h00.00.000,PGNGS_RST_750,2022.1.4,60.01619236
L_l.bmp,None,L_b.bmp,None,L_l.bmp,None,L_t.bmp,n,0.75,0.75,,,,,0,141,141,141,,,,,,,,,,,,,,,,,,,,,,,,,,,,,,,,,,,,,,,,,None,1,584.9383715,584.9383715,584.9383715,584.9383715,,,,,,,,,,,,,,,,,,,,,,,,,,,,,,,,example1,1,2025-01-01_00h00.00.000,PGNGS_RST_750,2022.1.4,60.01619236
L_s.bmp,n,L_s.bmp,n,L_t.bmp,n,L_l.bmp,None,0.75,0.75,,,,,0,142,142,142,,,,,,,,,,,,,,,,,,,,,,,,,,,,,,,,,,,,,,,,,n,1,585.6872277,585.6872277,585.6872277,585.6872277,0.4299333,,,,,,,,,,,,,,,,,,,,,,,,,,,,,,,example1,1,2025-01-01_00h00.00.000,PGNGS_RST_750,2022.1.4,60.01619236
L_n.bmp,None,L_n.bmp,None,L_n.bmp,None,L_b.bmp,None,0.75,0.75,,,,,0,143,143,143,,,,,,,,,,,,,,,,,,,,,,,,,,,,,,,,,,,,,,,,,None,1,586.4379971,586.4379971,586.4379971,586.4379971,,,,,,,,,,,,,,,,,,,,,,,,,,,,,,,,example1,1,2025-01-01_00h00.00.000,PGNGS_RST_750,2022.1.4,60.01619236
L_d.bmp,None,L_j.bmp,None,L_d.bmp,None,L_h.bmp,None,0.75,0.75,,,,,0,144,144,144,,,,,,,,,,,,,,,,,,,,,,,,,,,,,,,,,,,,,,,,,None,1,587.1875244,None,587.1875244,None,,,,,,,,,,,,,,,,,,,,,,,,,,,,,,,,example1,1,2025-01-01_00h00.00.000,PGNGS_RST_750,2022.1.4,60.01619236
L_s.bmp,n,L_h.bmp,None,L_s.bmp,n,L_c.bmp,None,0.75,0.75,,,,,0,145,145,145,,,,,,,,,,,,,,,,,,,,,,,,,,,,,,,,,,,,,,,,,None,1,587.9385527,587.9385527,587.9385527,587.9385527,,,,,,,,,,,,,,,,,,,,,,,,,,,,,,,,example1,1,2025-01-01_00h00.00.000,PGNGS_RST_750,2022.1.4,60.01619236
L_v.bmp,None,L_m.bmp,None,L_v.bmp,None,L_m.bmp,None,0.75,0.75,,,,,0,146,146,146,,,,,,,,,,,,,,,,,,,,,,,,,,,,,,,,,,,,,,,,,None,1,588.70499,None,588.70499,None,,,,,,,,,,,,,,,,,,,,,,,,,,,,,,,,example1,1,2025-01-01_00h00.00.000,PGNGS_RST_750,2022.1.4,60.01619236
L_f.bmp,None,L_q.bmp,None,L_f.bmp,None,L_j.bmp,None,0.75,0.75,,,,,0,147,147,147,,,,,,,,,,,,,,,,,,,,,,,,,,,,,,,,,,,,,,,,,None,1,589.4538989,None,589.4538989,None,,,,,,,,,,,,,,,,,,,,,,,,,,,,,,,,example1,1,2025-01-01_00h00.00.000,PGNGS_RST_750,2022.1.4,60.01619236
L_w.bmp,None,L_b.bmp,None,L_w.bmp,None,L_p.bmp,None,0.75,0.75,,,,,0,148,148,148,,,,,,,,,,,,,,,,,,,,,,,,,,,,,,,,,,,,,,,,,None,1,590.1874824,None,590.1874824,None,,,,,,,,,,,,,,,,,,,,,,,,,,,,,,,,example1,1,2025-01-01_00h00.00.000,PGNGS_RST_750,2022.1.4,60.01619236
L_q.bmp,None,L_g.bmp,None,L_q.bmp,None,L_b.bmp,None,0.25,0.75,,,,,0,149,149,149,,,,,,,,,,,,,,,,,,,,,,,,,,,,,,,,,,,,,,,,,None,1,590.9383969,590.9383969,590.9383969,590.9383969,,,,,,,,,,,,,,,,,,,,,,,,,,,,,,,,example1,1,2025-01-01_00h00.00.000,PGNGS_RST_750,2022.1.4,60.01619236
L_k.bmp,None,L_r.bmp,n,L_k.bmp,None,L_f.bmp,None,0.5,0.75,,,,,0,150,150,150,,,,,,,,,,,,,,,,,,,,,,,,,,,,,,,,,,,,,,,,,n,1,591.6873703,591.6873703,591.6873703,591.6873703,0.4303402,,,,,,,,,,,,,,,,,,,,,,,,,,,,,,,example1,1,2025-01-01_00h00.00.000,PGNGS_RST_750,2022.1.4,60.01619236
L_b.bmp,None,L_j.bmp,None,L_b.bmp,None,L_l.bmp,None,0.75,0.75,,,,,0,151,151,151,,,,,,,,,,,,,,,,,,,,,,,,,,,,,,,,,,,,,,,,,None,1,592.4378425,592.4378425,592.4378425,592.4378425,,,,,,,,,,,,,,,,,,,,,,,,,,,,,,,,example1,1,2025-01-01_00h00.00.000,PGNGS_RST_750,2022.1.4,60.01619236
L_f.bmp,None,L_f.bmp,None,L_j.bmp,None,L_v.bmp,None,0.75,0.75,,,,,0,152,152,152,,,,,,,,,,,,,,,,,,,,,,,,,,,,,,,,,,,,,,,,,None,1,593.1876562,593.1876562,593.1876562,593.1876562,,,,,,,,,,,,,,,,,,,,,,,,,,,,,,,,example1,1,2025-01-01_00h00.00.000,PGNGS_RST_750,2022.1.4,60.01619236
L_j.bmp,None,L_v.bmp,None,L_c.bmp,None,L_j.bmp,None,0.75,0.75,,,,,0,153,153,153,,,,,,,,,,,,,,,,,,,,,,,,,,,,,,,,,,,,,,,,,None,1,593.9384969,593.9384969,593.9384969,593.9384969,,,,,,,,,,,,,,,,,,,,,,,,,,,,,,,,example1,1,2025-01-01_00h00.00.000,PGNGS_RST_750,2022.1.4,60.01619236
L_s.bmp,n,L_f.bmp,None,L_s.bmp,n,L_t.bmp,None,0.75,0.75,,,,,0,154,154,154,,,,,,,,,,,,,,,,,,,,,,,,,,,,,,,,,,,,,,,,,None,1,594.7044239,None,594.7044239,None,,,,,,,,,,,,,,,,,,,,,,,,,,,,,,,,example1,1,2025-01-01_00h00.00.000,PGNGS_RST_750,2022.1.4,60.01619236
L_b.bmp,None,L_g.bmp,None,L_b.bmp,None,L_m.bmp,None,0.75,0.75,,,,,0,155,155,155,,,,,,,,,,,,,,,,,,,,,,,,,,,,,,,,,,,,,,,,,None,1,595.4542843,None,595.4542843,None,,,,,,,,,,,,,,,,,,,,,,,,,,,,,,,,example1,1,2025-01-01_00h00.00.000,PGNGS_RST_750,2022.1.4,60.01619236
L_q.bmp,None,L_h.bmp,None,L_q.bmp,None,L_k.bmp,None,0.75,0.75,,,,,0,156,156,156,,,,,,,,,,,,,,,,,,,,,,,,,,,,,,,,,,,,,,,,,None,1,596.2048608,None,596.2048608,None,,,,,,,,,,,,,,,,,,,,,,,,,,,,,,,,example1,1,2025-01-01_00h00.00.000,PGNGS_RST_750,2022.1.4,60.01619236
L_m.bmp,None,L_b.bmp,None,L_m.bmp,None,L_b.bmp,None,0.75,0.75,,,,,0,157,157,157,,,,,,,,,,,,,,,,,,,,,,,,,,,,,,,,,,,,,,,,,None,1,596.954379,None,596.954379,None,,,,,,,,,,,,,,,,,,,,,,,,,,,,,,,,example1,1,2025-01-01_00h00.00.000,PGNGS_RST_750,2022.1.4,60.01619236
L_q.bmp,None,L_v.bmp,None,L_q.bmp,None,L_s.bmp,n,0.75,0.75,,,,,0,158,158,158,,,,,,,,,,,,,,,,,,,,,,,,,,,,,,,,,,,,,,,,,None,1,597.7045096,None,597.7045096,None,,,,,,,,,,,,,,,,,,,,,,,,,,,,,,,,example1,1,2025-01-01_00h00.00.000,PGNGS_RST_750,2022.1.4,60.01619236
L_f.bmp,None,L_c.bmp,None,L_f.bmp,None,L_b.bmp,None,0.75,0.75,,,,,0,159,159,159,,,,,,,,,,,,,,,,,,,,,,,,,,,,,,,,,,,,,,,,,None,1,598.4543973,None,598.4543973,None,,,,,,,,,,,,,,,,,,,,,,,,,,,,,,,,example1,1,2025-01-01_00h00.00.000,PGNGS_RST_750,2022.1.4,60.01619236
L_j.bmp,None,L_l.bmp,None,L_j.bmp,None,L_d.bmp,None,0.75,0.3,,,,,0,160,160,160,,,,,,,,,,,,,,,,,,,,,,,,,,,,,,,,,,,,,,,,,None,1,599.2048262,None,599.2048262,None,,,,,,,,,,,,,,,,,,,,,,,,,,,,,,,,example1,1,2025-01-01_00h00.00.000,PGNGS_RST_750,2022.1.4,60.01619236
L_m.bmp,None,L_m.bmp,None,L_m.bmp,None,L_v.bmp,None,0.3,0.45,,,,,0,161,161,161,,,,,,,,,,,,,,,,,,,,,,,,,,,,,,,,,,,,,,,,,None,1,599.9543252,None,599.9543252,None,,,,,,,,,,,,,,,,,,,,,,,,,,,,,,,,example1,1,2025-01-01_00h00.00.000,PGNGS_RST_750,2022.1.4,60.01619236
L_b.bmp,None,L_n.bmp,None,L_b.bmp,None,L_b.bmp,None,0.45,0.75,,,,,0,162,162,162,,,,,,,,,,,,,,,,,,,,,,,,,,,,,,,,,,,,,,,,,None,1,600.7045226,None,600.7045226,None,,,,,,,,,,,,,,,,,,,,,,,,,,,,,,,,example1,1,2025-01-01_00h00.00.000,PGNGS_RST_750,2022.1.4,60.01619236
L_w.bmp,None,L_p.bmp,None,L_m.bmp,None,L_n.bmp,None,0.75,0.75,,,,,0,163,163,163,,,,,,,,,,,,,,,,,,,,,,,,,,,,,,,,,,,,,,,,,None,1,601.4544717,None,601.4544717,None,,,,,,,,,,,,,,,,,,,,,,,,,,,,,,,,example1,1,2025-01-01_00h00.00.000,PGNGS_RST_750,2022.1.4,60.01619236
L_m.bmp,None,L_v.bmp,None,L_b.bmp,None,L_c.bmp,None,0.75,0.75,,,,,0,164,164,164,,,,,,,,,,,,,,,,,,,,,,,,,,,,,,,,,,,,,,,,,None,1,602.2049714,None,602.2049714,None,,,,,,,,,,,,,,,,,,,,,,,,,,,,,,,,example1,1,2025-01-01_00h00.00.000,PGNGS_RST_750,2022.1.4,60.01619236
L_n.bmp,None,L_p.bmp,None,L_n.bmp,None,L_p.bmp,None,0.75,0.75,,,,,0,165,165,165,,,,,,,,,,,,,,,,,,,,,,,,,,,,,,,,,,,,,,,,,None,1,602.954593,None,602.954593,None,,,,,,,,,,,,,,,,,,,,,,,,,,,,,,,,example1,1,2025-01-01_00h00.00.000,PGNGS_RST_750,2022.1.4,60.01619236
L_f.bmp,None,L_r.bmp,None,L_f.bmp,None,L_f.bmp,None,0.75,0.75,,,,,0,166,166,166,,,,,,,,,,,,,,,,,,,,,,,,,,,,,,,,,,,,,,,,,None,1,603.7044761,None,603.7044761,None,,,,,,,,,,,,,,,,,,,,,,,,,,,,,,,,example1,1,2025-01-01_00h00.00.000,PGNGS_RST_750,2022.1.4,60.01619236
L_m.bmp,None,L_l.bmp,None,L_m.bmp,None,L_p.bmp,None,0.75,0.75,,,,,0,167,167,167,,,,,,,,,,,,,,,,,,,,,,,,,,,,,,,,,,,,,,,,,None,1,604.4541902,None,604.4541902,None,,,,,,,,,,,,,,,,,,,,,,,,,,,,,,,,example1,1,2025-01-01_00h00.00.000,PGNGS_RST_750,2022.1.4,60.01619236
None,None,L_q.bmp,None,None,None,L_t.bmp,n,0.75,0.75,,,,,0,168,168,168,,,,,,,,,,,,,,,,,,,,,,,,,,,,,,,,,,,,,,,,,None,1,605.1873652,None,605.1873652,None,,,,,,,,,,,,,,,,,,,,,,,,,,,,,,,,example1,1,2025-01-01_00h00.00.000,PGNGS_RST_750,2022.1.4,60.01619236
None,None,L_g.bmp,None,None,None,L_q.bmp,None,0.75,0.75,,,,,0,169,169,169,,,,,,,,,,,,,,,,,,,,,,,,,,,,,,,,,,,,,,,,,None,1,605.9384702,605.9384702,605.9384702,605.9384702,,,,,,,,,,,,,,,,,,,,,,,,,,,,,,,,example1,1,2025-01-01_00h00.00.000,PGNGS_RST_750,2022.1.4,60.01619236
None,None,L_s.bmp,n,None,None,L_v.bmp,None,0.75,0.75,,,,,0,170,170,170,,,,,,,,,,,,,,,,,,,,,,,,,,,,,,,,,,,,,,,,,n,1,606.6872179,606.6872179,606.6872179,606.6872179,0.4386762,,,,,,,,,,,,,,,,,,,,,,,,,,,,,,,example1,1,2025-01-01_00h00.00.000,PGNGS_RST_750,2022.1.4,60.01619236
None,None,L_b.bmp,None,None,None,L_s.bmp,n,0.75,0.75,,,,,0,171,171,171,,,,,,,,,,,,,,,,,,,,,,,,,,,,,,,,,,,,,,,,,None,1,607.4378963,607.4378963,607.4378963,607.4378963,,,,,,,,,,,,,,,,,,,,,,,,,,,,,,,,example1,1,2025-01-01_00h00.00.000,PGNGS_RST_750,2022.1.4,60.01619236
None,None,L_j.bmp,None,None,None,L_m.bmp,None,0.75,0.75,,,,,0,172,172,172,,,,,,,,,,,,,,,,,,,,,,,,,,,,,,,,,,,,,,,,,None,1,608.1871564,608.1871564,608.1871564,608.1871564,,,,,,,,,,,,,,,,,,,,,,,,,,,,,,,,example1,1,2025-01-01_00h00.00.000,PGNGS_RST_750,2022.1.4,60.01619236
None,None,L_g.bmp,None,None,None,L_h.bmp,None,0.75,0.75,,,,,0,173,173,173,,,,,,,,,,,,,,,,,,,,,,,,,,,,,,,,,,,,,,,,,None,1,608.9381089,608.9381089,608.9381089,608.9381089,,,,,,,,,,,,,,,,,,,,,,,,,,,,,,,,example1,1,2025-01-01_00h00.00.000,PGNGS_RST_750,2022.1.4,60.01619236
None,None,L_r.bmp,n,None,None,L_b.bmp,None,0.75,0.75,,,,,0,174,174,174,,,,,,,,,,,,,,,,,,,,,,,,,,,,,,,,,,,,,,,,,n,1,609.6873111,609.6873111,609.6873111,609.6873111,0.5094503,,,,,,,,,,,,,,,,,,,,,,,,,,,,,,,example1,1,2025-01-01_00h00.00.000,PGNGS_RST_750,2022.1.4,60.01619236
None,None,L_v.bmp,None,None,None,L_m.bmp,None,0.75,0.75,,,,,0,175,175,175,,,,,,,,,,,,,,,,,,,,,,,,,,,,,,,,,,,,,,,,,None,1,610.438239,610.438239,610.438239,610.438239,,,,,,,,,,,,,,,,,,,,,,,,,,,,,,,,example1,1,2025-01-01_00h00.00.000,PGNGS_RST_750,2022.1.4,60.01619236
None,None,L_m.bmp,None,None,None,L_q.bmp,None,0.75,0.75,,,,,0,176,176,176,,,,,,,,,,,,,,,,,,,,,,,,,,,,,,,,,,,,,,,,,None,1,611.1875058,611.1875058,611.1875058,611.1875058,,,,,,,,,,,,,,,,,,,,,,,,,,,,,,,,example1,1,2025-01-01_00h00.00.000,PGNGS_RST_750,2022.1.4,60.01619236
None,None,L_b.bmp,None,None,None,L_s.bmp,None,0.75,0.75,,,,,0,177,177,177,,,,,,,,,,,,,,,,,,,,,,,,,,,,,,,,,,,,,,,,,None,1,611.9385407,611.9385407,611.9385407,611.9385407,,,,,,,,,,,,,,,,,,,,,,,,,,,,,,,,example1,1,2025-01-01_00h00.00.000,PGNGS_RST_750,2022.1.4,60.01619236
None,None,L_r.bmp,None,None,None,L_v.bmp,None,0.75,0.75,,,,,0,178,178,178,,,,,,,,,,,,,,,,,,,,,,,,,,,,,,,,,,,,,,,,,None,1,612.7044796,None,612.7044796,None,,,,,,,,,,,,,,,,,,,,,,,,,,,,,,,,example1,1,2025-01-01_00h00.00.000,PGNGS_RST_750,2022.1.4,60.01619236
None,None,L_b.bmp,None,None,None,L_l.bmp,None,0.75,0.75,,,,,0,179,179,179,,,,,,,,,,,,,,,,,,,,,,,,,,,,,,,,,,,,,,,,,None,1,613.4545945,None,613.4545945,None,,,,,,,,,,,,,,,,,,,,,,,,,,,,,,,,example1,1,2025-01-01_00h00.00.000,PGNGS_RST_750,2022.1.4,60.01619236
None,None,L_d.bmp,None,None,None,L_r.bmp,n,0.75,0.75,,,,,0,180,180,180,,,,,,,,,,,,,,,,,,,,,,,,,,,,,,,,,,,,,,,,,None,1,614.1879797,None,614.1879797,None,,,,,,,,,,,,,,,,,,,,,,,,,,,,,,,,example1,1,2025-01-01_00h00.00.000,PGNGS_RST_750,2022.1.4,60.01619236
None,None,L_v.bmp,None,None,None,L_j.bmp,None,0.75,0.75,,,,,0,181,181,181,,,,,,,,,,,,,,,,,,,,,,,,,,,,,,,,,,,,,,,,,None,1,614.938338,614.938338,614.938338,614.938338,,,,,,,,,,,,,,,,,,,,,,,,,,,,,,,,example1,1,2025-01-01_00h00.00.000,PGNGS_RST_750,2022.1.4,60.01619236
None,None,L_b.bmp,None,None,None,L_g.bmp,None,0.75,0.75,,,,,0,182,182,182,,,,,,,,,,,,,,,,,,,,,,,,,,,,,,,,,,,,,,,,,None,1,615.6872711,615.6872711,615.6872711,615.6872711,,,,,,,,,,,,,,,,,,,,,,,,,,,,,,,,example1,1,2025-01-01_00h00.00.000,PGNGS_RST_750,2022.1.4,60.01619236
None,None,L_n.bmp,None,None,None,L_f.bmp,None,0.75,0.75,,,,,0,183,183,183,,,,,,,,,,,,,,,,,,,,,,,,,,,,,,,,,,,,,,,,,None,1,616.4381287,616.4381287,616.4381287,616.4381287,,,,,,,,,,,,,,,,,,,,,,,,,,,,,,,,example1,1,2025-01-01_00h00.00.000,PGNGS_RST_750,2022.1.4,60.01619236
None,None,L_c.bmp,None,None,None,L_d.bmp,None,0.25,0.75,,,,,0,184,184,184,,,,,,,,,,,,,,,,,,,,,,,,,,,,,,,,,,,,,,,,,None,1,617.1877382,617.1877382,617.1877382,617.1877382,,,,,,,,,,,,,,,,,,,,,,,,,,,,,,,,example1,1,2025-01-01_00h00.00.000,PGNGS_RST_750,2022.1.4,60.01619236
None,None,L_p.bmp,None,None,None,L_k.bmp,None,0.5,0.75,,,,,0,185,185,185,,,,,,,,,,,,,,,,,,,,,,,,,,,,,,,,,,,,,,,,,None,1,617.938108,617.938108,617.938108,617.938108,,,,,,,,,,,,,,,,,,,,,,,,,,,,,,,,example1,1,2025-01-01_00h00.00.000,PGNGS_RST_750,2022.1.4,60.01619236
None,None,L_f.bmp,None,None,None,L_c.bmp,None,0.75,0.25,,,,,0,186,186,186,,,,,,,,,,,,,,,,,,,,,,,,,,,,,,,,,,,,,,,,,None,1,618.6872644,618.6872644,618.6872644,618.6872644,,,,,,,,,,,,,,,,,,,,,,,,,,,,,,,,example1,1,2025-01-01_00h00.00.000,PGNGS_RST_750,2022.1.4,60.01619236
None,None,L_p.bmp,None,None,None,L_n.bmp,None,0.75,0.5,,,,,0,187,187,187,,,,,,,,,,,,,,,,,,,,,,,,,,,,,,,,,,,,,,,,,None,1,619.4384872,619.4384872,619.4384872,619.4384872,,,,,,,,,,,,,,,,,,,,,,,,,,,,,,,,example1,1,2025-01-01_00h00.00.000,PGNGS_RST_750,2022.1.4,60.01619236
None,None,L_s.bmp,n,None,None,L_h.bmp,None,0.75,0.75,,,,,0,188,188,188,,,,,,,,,,,,,,,,,,,,,,,,,,,,,,,,,,,,,,,,,n,1,620.1874936,620.1874936,620.1874936,620.1874936,0.425363,,,,,,,,,,,,,,,,,,,,,,,,,,,,,,,example1,1,2025-01-01_00h00.00.000,PGNGS_RST_750,2022.1.4,60.01619236
None,None,L_d.bmp,None,None,None,L_g.bmp,None,0.75,0.75,,,,,0,189,189,189,,,,,,,,,,,,,,,,,,,,,,,,,,,,,,,,,,,,,,,,,None,1,620.9381857,620.9381857,620.9381857,620.9381857,,,,,,,,,,,,,,,,,,,,,,,,,,,,,,,,example1,1,2025-01-01_00h00.00.000,PGNGS_RST_750,2022.1.4,60.01619236
None,None,L_q.bmp,None,None,None,L_t.bmp,n,0.75,0.75,,,,,0,190,190,190,,,,,,,,,,,,,,,,,,,,,,,,,,,,,,,,,,,,,,,,,None,1,621.6873662,621.6873662,621.6873662,621.6873662,,,,,,,,,,,,,,,,,,,,,,,,,,,,,,,,example1,1,2025-01-01_00h00.00.000,PGNGS_RST_750,2022.1.4,60.01619236
None,None,L_m.bmp,None,None,None,L_l.bmp,None,0.75,0.75,,,,,0,191,191,191,,,,,,,,,,,,,,,,,,,,,,,,,,,,,,,,,,,,,,,,,None,1,622.4377704,622.4377704,622.4377704,622.4377704,,,,,,,,,,,,,,,,,,,,,,,,,,,,,,,,example1,1,2025-01-01_00h00.00.000,PGNGS_RST_750,2022.1.4,60.01619236
None,None,L_r.bmp,n,None,None,L_b.bmp,None,0.75,0.75,,,,,0,192,192,192,,,,,,,,,,,,,,,,,,,,,,,,,,,,,,,,,,,,,,,,,n,1,623.1875619,None,623.1875619,None,0.5141118,,,,,,,,,,,,,,,,,,,,,,,,,,,,,,,example1,1,2025-01-01_00h00.00.000,PGNGS_RST_750,2022.1.4,60.01619236
None,None,L_h.bmp,None,None,None,L_k.bmp,None,0.75,0.75,,,,,0,193,193,193,,,,,,,,,,,,,,,,,,,,,,,,,,,,,,,,,,,,,,,,,None,1,623.938314,623.938314,623.938314,623.938314,,,,,,,,,,,,,,,,,,,,,,,,,,,,,,,,example1,1,2025-01-01_00h00.00.000,PGNGS_RST_750,2022.1.4,60.01619236
None,None,L_b.bmp,None,None,None,L_j.bmp,None,0.75,0.75,,,,,0,194,194,194,,,,,,,,,,,,,,,,,,,,,,,,,,,,,,,,,,,,,,,,,None,1,624.6873891,624.6873891,624.6873891,624.6873891,,,,,,,,,,,,,,,,,,,,,,,,,,,,,,,,example1,1,2025-01-01_00h00.00.000,PGNGS_RST_750,2022.1.4,60.01619236
None,None,L_m.bmp,None,None,None,L_f.bmp,None,0.75,0.75,,,,,0,195,195,195,,,,,,,,,,,,,,,,,,,,,,,,,,,,,,,,,,,,,,,,,None,1,625.4379592,625.4379592,625.4379592,625.4379592,,,,,,,,,,,,,,,,,,,,,,,,,,,,,,,,example1,1,2025-01-01_00h00.00.000,PGNGS_RST_750,2022.1.4,60.01619236
None,None,L_q.bmp,None,None,None,L_g.bmp,None,0.75,0.75,,,,,0,196,196,196,,,,,,,,,,,,,,,,,,,,,,,,,,,,,,,,,,,,,,,,,None,1,626.1874204,626.1874204,626.1874204,626.1874204,,,,,,,,,,,,,,,,,,,,,,,,,,,,,,,,example1,1,2025-01-01_00h00.00.000,PGNGS_RST_750,2022.1.4,60.01619236
None,None,L_s.bmp,n,None,None,L_h.bmp,None,0.75,0.75,,,,,0,197,197,197,,,,,,,,,,,,,,,,,,,,,,,,,,,,,,,,,,,,,,,,,n,1,626.938111,626.938111,626.938111,626.938111,0.4758221,,,,,,,,,,,,,,,,,,,,,,,,,,,,,,,example1,1,2025-01-01_00h00.00.000,PGNGS_RST_750,2022.1.4,60.01619236
None,None,L_v.bmp,None,None,None,L_b.bmp,None,0.75,0.75,,,,,0,198,198,198,,,,,,,,,,,,,,,,,,,,,,,,,,,,,,,,,,,,,,,,,None,1,627.6878152,627.6878152,627.6878152,627.6878152,,,,,,,,,,,,,,,,,,,,,,,,,,,,,,,,example1,1,2025-01-01_00h00.00.000,PGNGS_RST_750,2022.1.4,60.01619236
None,None,L_l.bmp,None,None,None,L_v.bmp,None,0.75,0.75,,,,,0,199,199,199,,,,,,,,,,,,,,,,,,,,,,,,,,,,,,,,,,,,,,,,,None,1,628.4383958,628.4383958,628.4383958,628.4383958,,,,,,,,,,,,,,,,,,,,,,,,,,,,,,,,example1,1,2025-01-01_00h00.00.000,PGNGS_RST_750,2022.1.4,60.01619236
None,None,L_s.bmp,None,None,None,L_b.bmp,None,0.75,0.75,,,,,0,200,200,200,,,,,,,,,,,,,,,,,,,,,,,,,,,,,,,,,,,,,,,,,None,1,629.1877463,None,629.1877463,None,,,,,,,,,,,,,,,,,,,,,,,,,,,,,,,,example1,1,2025-01-01_00h00.00.000,PGNGS_RST_750,2022.1.4,60.01619236
