key_resp_instruct.keys,key_resp_instruct.rt,trials.thisRepN,trials.thisTrialN,trials.thisN,trials.thisIndex,trials.ran,Instructions,Text,participant,session,date,expName,psychopyVersion,OS,frameRate,key_face.keys,key_face.corr,key_resp_WM.keys,key_resp_WM.corr,key_resp_face.keys,key_resp_face.corr,key_resp_face.rt,key_resp_crosshair.keys,key_resp_crosshair.corr,trials_1_faces.thisRepN,trials_1_faces.thisTrialN,trials_1_faces.thisN,trials_1_faces.thisIndex,trials_1_faces.ran,Stimuli,Correct_Response,WM_wash,Face_Response,key_animal2.keys,key_animal2.corr,key_resp_WM2.keys,key_resp_WM2.corr,key_resp_animal2.keys,key_resp_animal2.corr,key_resp_animal2.rt,key_resp_crosshair4.keys,key_resp_crosshair4.corr,trials_1_animals.thisRepN,trials_1_animals.thisTrialN,trials_1_animals.thisN,trials_1_animals.thisIndex,trials_1_animals.ran,Code,Stimulus,Animal_Response,trials_2_faces.thisRepN,trials_2_faces.thisTrialN,trials_2_faces.thisN,trials_2_faces.thisIndex,trials_2_faces.ran,trials_2_animals.thisRepN,trials_2_animals.thisTrialN,trials_2_animals.thisN,trials_2_animals.thisIndex,trials_2_animals.ran,trial_3_faces.thisRepN,trial_3_faces.thisTrialN,trial_3_faces.thisN,trial_3_faces.thisIndex,trial_3_faces.ran,key_resp_crosshair.rt,trials_3_animals.thisRepN,trials_3_animals.thisTrialN,trials_3_animals.thisN,trials_3_animals.thisIndex,trials_3_animals.ran,trials_4_faces.thisRepN,trials_4_faces.thisTrialN,trials_4_faces.thisN,trials_4_faces.thisIndex,trials_4_faces.ran,trials_4_animals.thisRepN,trials_4_animals.thisTrialN,trials_4_animals.thisN,trials_4_animals.thisIndex,trials_4_animals.ran,trials_5_faces.thisRepN,trials_5_faces.thisTrialN,trials_5_faces.thisN,trials_5_faces.thisIndex,trials_5_faces.ran,trials_5_animals.thisRepN,trials_5_animals.thisTrialN,trials_5_animals.thisN,trials_5_animals.thisIndex,trials_5_animals.ran,trials_6_faces.thisRepN,trials_6_faces.thisTrialN,trials_6_faces.thisN,trials_6_faces.thisIndex,trials_6_faces.ran,trials_6_animals.thisRepN,trials_6_animals.thisTrialN,trials_6_animals.thisN,trials_6_animals.thisIndex,trials_6_animals.ran,trials_7_faces.thisRepN,trials_7_faces.thisTrialN,trials_7_faces.thisN,trials_7_faces.thisIndex,trials_7_faces.ran,trials_7_animals.thisRepN,trials_7_animals.thisTrialN,trials_7_animals.thisN,trials_7_animals.thisIndex,trials_7_animals.ran,trials_8_faces.thisRepN,trials_8_faces.thisTrialN,trials_8_faces.thisN,trials_8_faces.thisIndex,trials_8_faces.ran,trials_8_animals.thisRepN,trials_8_animals.thisTrialN,trials_8_animals.thisN,trials_8_animals.thisIndex,trials_8_animals.ran,trials_9_faces.thisRepN,trials_9_faces.thisTrialN,trials_9_faces.thisN,trials_9_faces.thisIndex,trials_9_faces.ran,trials_9_animals.thisRepN,trials_9_animals.thisTrialN,trials_9_animals.thisN,trials_9_animals.thisIndex,trials_9_animals.ran,trials_10_faces.thisRepN,trials_10_faces.thisTrialN,trials_10_faces.thisN,trials_10_faces.thisIndex,trials_10_faces.ran,trials_10_animals.thisRepN,trials_10_animals.thisTrialN,trials_10_animals.thisN,trials_10_animals.thisIndex,trials_10_animals.ran
space,18.97,0,0,0,0,1,Instruct_1.jpg,Welcome to the Facial Emotion Perception Test - MC by Langenecker & Easter. A picture of an animal or a face of a person will appear on each screen. Press space to continue…,example_1,1,2020-01-01_00h00.00.000,FEPT_MR_v8r11_index1_pavlovia,2020.2.10,Win32,60,,,,,,,,,,,,,,,,,,,,,,,,,,,,,,,,,,,,,,,,,,,,,,,,,,,,,,,,,,,,,,,,,,,,,,,,,,,,,,,,,,,,,,,,,,,,,,,,,,,,,,,,,,,,,,,,,,,,,,,,,,,,,,
space,4.463,0,1,1,1,1,Instruct_2.jpg,"For a person, you must choose the facial expression displayed. For an animal, you choose the category of animal that you see. Press space to continue…",example_1,1,2020-01-01_00h00.00.000,FEPT_MR_v8r11_index1_pavlovia,2020.2.10,Win32,60,,,,,,,,,,,,,,,,,,,,,,,,,,,,,,,,,,,,,,,,,,,,,,,,,,,,,,,,,,,,,,,,,,,,,,,,,,,,,,,,,,,,,,,,,,,,,,,,,,,,,,,,,,,,,,,,,,,,,,,,,,,,,,
space,3.762,0,2,2,2,1,Instruct_3.jpg,"You are to keep your right-hand fingers on the following keys: space, j, k, l and ;. Press Space to continue",example_1,1,2020-01-01_00h00.00.000,FEPT_MR_v8r11_index1_pavlovia,2020.2.10,Win32,60,,,,,,,,,,,,,,,,,,,,,,,,,,,,,,,,,,,,,,,,,,,,,,,,,,,,,,,,,,,,,,,,,,,,,,,,,,,,,,,,,,,,,,,,,,,,,,,,,,,,,,,,,,,,,,,,,,,,,,,,,,,,,,
space,8.368,0,3,3,3,1,Instruct_3.5.jpg,After every animal or face picture you will see a response screen. Click Space to see examples of these response screens. *You do not need to memorize these responses as they will come up after every picture you see*,example_1,1,2020-01-01_00h00.00.000,FEPT_MR_v8r11_index1_pavlovia,2020.2.10,Win32,60,,,,,,,,,,,,,,,,,,,,,,,,,,,,,,,,,,,,,,,,,,,,,,,,,,,,,,,,,,,,,,,,,,,,,,,,,,,,,,,,,,,,,,,,,,,,,,,,,,,,,,,,,,,,,,,,,,,,,,,,,,,,,,
space,3.795,0,4,4,4,1,Instruct_4.jpg,What emotion did you see? Your choices for emotions are: Sad angry happpy fearful neutral.  Press Space to continue,example_1,1,2020-01-01_00h00.00.000,FEPT_MR_v8r11_index1_pavlovia,2020.2.10,Win32,60,,,,,,,,,,,,,,,,,,,,,,,,,,,,,,,,,,,,,,,,,,,,,,,,,,,,,,,,,,,,,,,,,,,,,,,,,,,,,,,,,,,,,,,,,,,,,,,,,,,,,,,,,,,,,,,,,,,,,,,,,,,,,,
space,1.972,0,5,5,5,1,Instruct_5.jpg,"What animal did you see? Your choices for animals are: dog, cat, fish, bird, monkey primate. Press Space to continue",example_1,1,2020-01-01_00h00.00.000,FEPT_MR_v8r11_index1_pavlovia,2020.2.10,Win32,60,,,,,,,,,,,,,,,,,,,,,,,,,,,,,,,,,,,,,,,,,,,,,,,,,,,,,,,,,,,,,,,,,,,,,,,,,,,,,,,,,,,,,,,,,,,,,,,,,,,,,,,,,,,,,,,,,,,,,,,,,,,,,,
space,3.453,0,6,6,6,1,Instruct_6.jpg,A prompt (ANIMALS or FACES) will indicate what is coming next. Press space to continue,example_1,1,2020-01-01_00h00.00.000,FEPT_MR_v8r11_index1_pavlovia,2020.2.10,Win32,60,,,,,,,,,,,,,,,,,,,,,,,,,,,,,,,,,,,,,,,,,,,,,,,,,,,,,,,,,,,,,,,,,,,,,,,,,,,,,,,,,,,,,,,,,,,,,,,,,,,,,,,,,,,,,,,,,,,,,,,,,,,,,,
space,3.828,0,7,7,7,1,Instruct_7.jpg,"When ready, please inform the experimenter who will then press the space bar to begin the task",example_1,1,2020-01-01_00h00.00.000,FEPT_MR_v8r11_index1_pavlovia,2020.2.10,Win32,60,,,,,,,,,,,,,,,,,,,,,,,,,,,,,,,,,,,,,,,,,,,,,,,,,,,,,,,,,,,,,,,,,,,,,,,,,,,,,,,,,,,,,,,,,,,,,,,,,,,,,,,,,,,,,,,,,,,,,,,,,,,,,,
,,,,,,,,,example_1,1,2020-01-01_00h00.00.000,FEPT_MR_v8r11_index1_pavlovia,2020.2.10,Win32,60,,0,,0,j,1,1.666,,0,0,0,0,0,1,Images/Wh_F_Ang_005c.jpg,j,Images/mask.jpg,Images/FEPTAFVThumbFaces_claw_INSTRUCT_1.jpg,,,,,,,,,,,,,,,,,,,,,,,,,,,,,,,,,,,,,,,,,,,,,,,,,,,,,,,,,,,,,,,,,,,,,,,,,,,,,,,,,,,,,,,,,,,,,,,,,,,,,,,,,,,,
,,,,,,,,,example_1,1,2020-01-01_00h00.00.000,FEPT_MR_v8r11_index1_pavlovia,2020.2.10,Win32,60,,0,,0,k,1,1.908,,0,0,1,1,1,1,Images/Bl_M_Hap_011c.jpg,k,Images/mask.jpg,Images/FEPTAFVThumbFaces_claw_INSTRUCT_1.jpg,,,,,,,,,,,,,,,,,,,,,,,,,,,,,,,,,,,,,,,,,,,,,,,,,,,,,,,,,,,,,,,,,,,,,,,,,,,,,,,,,,,,,,,,,,,,,,,,,,,,,,,,,,,,
,,,,,,,,,example_1,1,2020-01-01_00h00.00.000,FEPT_MR_v8r11_index1_pavlovia,2020.2.10,Win32,60,,0,,0,k,1,1.067,,0,0,2,2,2,1,Images/As_F_Hap_152.jpg,k,Images/mask.jpg,Images/FEPTAFVThumbFaces_claw_INSTRUCT_1.jpg,,,,,,,,,,,,,,,,,,,,,,,,,,,,,,,,,,,,,,,,,,,,,,,,,,,,,,,,,,,,,,,,,,,,,,,,,,,,,,,,,,,,,,,,,,,,,,,,,,,,,,,,,,,,
,,,,,,,,,example_1,1,2020-01-01_00h00.00.000,FEPT_MR_v8r11_index1_pavlovia,2020.2.10,Win32,60,,0,,0,l,1,0.736,,0,0,3,3,3,1,Images/As_M_Fea_104.jpg,l,Images/mask.jpg,Images/FEPTAFVThumbFaces_claw_INSTRUCT_1.jpg,,,,,,,,,,,,,,,,,,,,,,,,,,,,,,,,,,,,,,,,,,,,,,,,,,,,,,,,,,,,,,,,,,,,,,,,,,,,,,,,,,,,,,,,,,,,,,,,,,,,,,,,,,,,
,,,,,,,,,example_1,1,2020-01-01_00h00.00.000,FEPT_MR_v8r11_index1_pavlovia,2020.2.10,Win32,60,,0,,0,k,1,0.852,,0,0,4,4,4,1,Images/Wh_M_Hap_004c.jpg,k,Images/mask.jpg,Images/FEPTAFVThumbFaces_claw_INSTRUCT_1.jpg,,,,,,,,,,,,,,,,,,,,,,,,,,,,,,,,,,,,,,,,,,,,,,,,,,,,,,,,,,,,,,,,,,,,,,,,,,,,,,,,,,,,,,,,,,,,,,,,,,,,,,,,,,,,
,,,,,,,,,example_1,1,2020-01-01_00h00.00.000,FEPT_MR_v8r11_index1_pavlovia,2020.2.10,Win32,60,,,,,,,,,,,,,,,,semicolon,Images/mask.jpg,,,0,,0,semicolon,1,1.319,,0,0,0,0,0,1,Co,Images/ANML_Co_13.jpg,Images/FEPTAFVThumbAnimals_claw_INSTRUCT_1.jpg,,,,,,,,,,,,,,,,,,,,,,,,,,,,,,,,,,,,,,,,,,,,,,,,,,,,,,,,,,,,,,,,,,,,,,,,,,,,,,,,,,,,,,,,,,,
,,,,,,,,,example_1,1,2020-01-01_00h00.00.000,FEPT_MR_v8r11_index1_pavlovia,2020.2.10,Win32,60,,,,,,,,,,,,,,,,l,Images/mask.jpg,,,0,,0,l,1,0.721,,0,0,1,1,1,1,Bi,Images/ANML_Bi_14.jpg,Images/FEPTAFVThumbAnimals_claw_INSTRUCT_1.jpg,,,,,,,,,,,,,,,,,,,,,,,,,,,,,,,,,,,,,,,,,,,,,,,,,,,,,,,,,,,,,,,,,,,,,,,,,,,,,,,,,,,,,,,,,,,
,,,,,,,,,example_1,1,2020-01-01_00h00.00.000,FEPT_MR_v8r11_index1_pavlovia,2020.2.10,Win32,60,,,,,,,,,,,,,,,,j,Images/mask.jpg,,,0,,0,j,1,0.785,,0,0,2,2,2,1,Ct,Images/ANML_Ct_12.jpg,Images/FEPTAFVThumbAnimals_claw_INSTRUCT_1.jpg,,,,,,,,,,,,,,,,,,,,,,,,,,,,,,,,,,,,,,,,,,,,,,,,,,,,,,,,,,,,,,,,,,,,,,,,,,,,,,,,,,,,,,,,,,,
,,,,,,,,,example_1,1,2020-01-01_00h00.00.000,FEPT_MR_v8r11_index1_pavlovia,2020.2.10,Win32,60,,,,,,,,,,,,,,,,l,Images/mask.jpg,,,0,,0,l,1,1.156,,0,0,3,3,3,1,Bi,Images/ANML_Bi_16.jpg,Images/FEPTAFVThumbAnimals_claw_INSTRUCT_1.jpg,,,,,,,,,,,,,,,,,,,,,,,,,,,,,,,,,,,,,,,,,,,,,,,,,,,,,,,,,,,,,,,,,,,,,,,,,,,,,,,,,,,,,,,,,,,
,,,,,,,,,example_1,1,2020-01-01_00h00.00.000,FEPT_MR_v8r11_index1_pavlovia,2020.2.10,Win32,60,,,,,,,,,,,,,,,,semicolon,Images/mask.jpg,,,0,,0,semicolon,1,0.491,,0,0,4,4,4,1,Co,Images/ANML_Co_02.jpg,Images/FEPTAFVThumbAnimals_claw_INSTRUCT_1.jpg,,,,,,,,,,,,,,,,,,,,,,,,,,,,,,,,,,,,,,,,,,,,,,,,,,,,,,,,,,,,,,,,,,,,,,,,,,,,,,,,,,,,,,,,,,,
,,,,,,,,,example_1,1,2020-01-01_00h00.00.000,FEPT_MR_v8r11_index1_pavlovia,2020.2.10,Win32,60,,,,,,,,,,,,,,,,l,Images/mask.jpg,,,0,,0,l,1,0.522,,0,0,5,5,5,1,Bi,Images/ANML_Bi_17.jpg,Images/FEPTAFVThumbAnimals_claw_INSTRUCT_1.jpg,,,,,,,,,,,,,,,,,,,,,,,,,,,,,,,,,,,,,,,,,,,,,,,,,,,,,,,,,,,,,,,,,,,,,,,,,,,,,,,,,,,,,,,,,,,
,,,,,,,,,example_1,1,2020-01-01_00h00.00.000,FEPT_MR_v8r11_index1_pavlovia,2020.2.10,Win32,60,,0,,0,j,1,0.771,,0,,,,,,Images/Bl_F_Ang_002c.jpg,j,Images/mask.jpg,Images/FEPTAFVThumbFaces_claw_INSTRUCT_1.jpg,,,,,,,,,,,,,,,,,,0,0,0,0,1,,,,,,,,,,,,,,,,,,,,,,,,,,,,,,,,,,,,,,,,,,,,,,,,,,,,,,,,,,,,,,,,,,,,,,,,,,,,,,,,,,,,,,
,,,,,,,,,example_1,1,2020-01-01_00h00.00.000,FEPT_MR_v8r11_index1_pavlovia,2020.2.10,Win32,60,,0,,0,k,1,1.039,,0,,,,,,Images/Bl_M_Hap_017c.jpg,k,Images/mask.jpg,Images/FEPTAFVThumbFaces_claw_INSTRUCT_1.jpg,,,,,,,,,,,,,,,,,,0,1,1,1,1,,,,,,,,,,,,,,,,,,,,,,,,,,,,,,,,,,,,,,,,,,,,,,,,,,,,,,,,,,,,,,,,,,,,,,,,,,,,,,,,,,,,,,
,,,,,,,,,example_1,1,2020-01-01_00h00.00.000,FEPT_MR_v8r11_index1_pavlovia,2020.2.10,Win32,60,,0,,0,semicolon,1,0.457,,0,,,,,,Images/Wh_M_Neu_006c.jpg,semicolon,Images/mask.jpg,Images/FEPTAFVThumbFaces_claw_INSTRUCT_1.jpg,,,,,,,,,,,,,,,,,,0,2,2,2,1,,,,,,,,,,,,,,,,,,,,,,,,,,,,,,,,,,,,,,,,,,,,,,,,,,,,,,,,,,,,,,,,,,,,,,,,,,,,,,,,,,,,,,
,,,,,,,,,example_1,1,2020-01-01_00h00.00.000,FEPT_MR_v8r11_index1_pavlovia,2020.2.10,Win32,60,,0,,0,l,1,0.738,,0,,,,,,Images/Wh_F_Fea_008c.jpg,l,Images/mask.jpg,Images/FEPTAFVThumbFaces_claw_INSTRUCT_1.jpg,,,,,,,,,,,,,,,,,,0,3,3,3,1,,,,,,,,,,,,,,,,,,,,,,,,,,,,,,,,,,,,,,,,,,,,,,,,,,,,,,,,,,,,,,,,,,,,,,,,,,,,,,,,,,,,,,
,,,,,,,,,example_1,1,2020-01-01_00h00.00.000,FEPT_MR_v8r11_index1_pavlovia,2020.2.10,Win32,60,,0,,0,j,1,0.603,,0,,,,,,Images/Bl_M_Ang_001c.jpg,j,Images/mask.jpg,Images/FEPTAFVThumbFaces_claw_INSTRUCT_1.jpg,,,,,,,,,,,,,,,,,,0,4,4,4,1,,,,,,,,,,,,,,,,,,,,,,,,,,,,,,,,,,,,,,,,,,,,,,,,,,,,,,,,,,,,,,,,,,,,,,,,,,,,,,,,,,,,,,
,,,,,,,,,example_1,1,2020-01-01_00h00.00.000,FEPT_MR_v8r11_index1_pavlovia,2020.2.10,Win32,60,,0,,0,semicolon,1,0.673,,0,,,,,,Images/As_F_Neu_201c.jpg,semicolon,Images/mask.jpg,Images/FEPTAFVThumbFaces_claw_INSTRUCT_1.jpg,,,,,,,,,,,,,,,,,,0,5,5,5,1,,,,,,,,,,,,,,,,,,,,,,,,,,,,,,,,,,,,,,,,,,,,,,,,,,,,,,,,,,,,,,,,,,,,,,,,,,,,,,,,,,,,,,
,,,,,,,,,example_1,1,2020-01-01_00h00.00.000,FEPT_MR_v8r11_index1_pavlovia,2020.2.10,Win32,60,,,,,,,,,,,,,,,,semicolon,Images/mask.jpg,,,0,,0,semicolon,1,1.035,,0,,,,,,Co,Images/ANML_Co_03.jpg,Images/FEPTAFVThumbAnimals_claw_INSTRUCT_1.jpg,,,,,,0,0,0,0,1,,,,,,,,,,,,,,,,,,,,,,,,,,,,,,,,,,,,,,,,,,,,,,,,,,,,,,,,,,,,,,,,,,,,,,,,,,,,,,,,,
,,,,,,,,,example_1,1,2020-01-01_00h00.00.000,FEPT_MR_v8r11_index1_pavlovia,2020.2.10,Win32,60,,,,,,,,,,,,,,,,k,Images/mask.jpg,,,0,,0,k,1,0.7,,0,,,,,,Fi,Images/ANML_Fi_01.jpg,Images/FEPTAFVThumbAnimals_claw_INSTRUCT_1.jpg,,,,,,0,1,1,1,1,,,,,,,,,,,,,,,,,,,,,,,,,,,,,,,,,,,,,,,,,,,,,,,,,,,,,,,,,,,,,,,,,,,,,,,,,,,,,,,,,
,,,,,,,,,example_1,1,2020-01-01_00h00.00.000,FEPT_MR_v8r11_index1_pavlovia,2020.2.10,Win32,60,,,,,,,,,,,,,,,,space,Images/mask.jpg,,,0,,0,space,1,0.621,,0,,,,,,Do,Images/ANML_Do_13.jpg,Images/FEPTAFVThumbAnimals_claw_INSTRUCT_1.jpg,,,,,,0,2,2,2,1,,,,,,,,,,,,,,,,,,,,,,,,,,,,,,,,,,,,,,,,,,,,,,,,,,,,,,,,,,,,,,,,,,,,,,,,,,,,,,,,,
,,,,,,,,,example_1,1,2020-01-01_00h00.00.000,FEPT_MR_v8r11_index1_pavlovia,2020.2.10,Win32,60,,,,,,,,,,,,,,,,l,Images/mask.jpg,,,0,,0,l,1,0.955,,0,,,,,,Bi,Images/ANML_Bi_18.jpg,Images/FEPTAFVThumbAnimals_claw_INSTRUCT_1.jpg,,,,,,0,3,3,3,1,,,,,,,,,,,,,,,,,,,,,,,,,,,,,,,,,,,,,,,,,,,,,,,,,,,,,,,,,,,,,,,,,,,,,,,,,,,,,,,,,
,,,,,,,,,example_1,1,2020-01-01_00h00.00.000,FEPT_MR_v8r11_index1_pavlovia,2020.2.10,Win32,60,,,,,,,,,,,,,,,,semicolon,Images/mask.jpg,,,0,,0,semicolon,1,0.669,,0,,,,,,Co,Images/ANML_Co_15.jpg,Images/FEPTAFVThumbAnimals_claw_INSTRUCT_1.jpg,,,,,,0,4,4,4,1,,,,,,,,,,,,,,,,,,,,,,,,,,,,,,,,,,,,,,,,,,,,,,,,,,,,,,,,,,,,,,,,,,,,,,,,,,,,,,,,,
,,,,,,,,,example_1,1,2020-01-01_00h00.00.000,FEPT_MR_v8r11_index1_pavlovia,2020.2.10,Win32,60,,,,,,,,,,,,,,,,k,Images/mask.jpg,,,0,,0,k,1,0.938,,0,,,,,,Fi,Images/ANML_Fi_02.jpg,Images/FEPTAFVThumbAnimals_claw_INSTRUCT_1.jpg,,,,,,0,5,5,5,1,,,,,,,,,,,,,,,,,,,,,,,,,,,,,,,,,,,,,,,,,,,,,,,,,,,,,,,,,,,,,,,,,,,,,,,,,,,,,,,,,
,,,,,,,,,example_1,1,2020-01-01_00h00.00.000,FEPT_MR_v8r11_index1_pavlovia,2020.2.10,Win32,60,,0,,0,semicolon,1,1.388,,0,,,,,,Images/Wh_M_Neu_011c.jpg,semicolon,Images/mask.jpg,Images/FEPTAFVThumbFaces_claw_INSTRUCT_1.jpg,,,,,,,,,,,,,,,,,,,,,,,,,,,,0,0,0,0,1,,,,,,,,,,,,,,,,,,,,,,,,,,,,,,,,,,,,,,,,,,,,,,,,,,,,,,,,,,,,,,,,,,,,,,,,,,,,
,,,,,,,,,example_1,1,2020-01-01_00h00.00.000,FEPT_MR_v8r11_index1_pavlovia,2020.2.10,Win32,60,,0,,0,k,1,1.221,,0,,,,,,Images/As_F_Hap_162.jpg,k,Images/mask.jpg,Images/FEPTAFVThumbFaces_claw_INSTRUCT_1.jpg,,,,,,,,,,,,,,,,,,,,,,,,,,,,0,1,1,1,1,,,,,,,,,,,,,,,,,,,,,,,,,,,,,,,,,,,,,,,,,,,,,,,,,,,,,,,,,,,,,,,,,,,,,,,,,,,,
,,,,,,,,,example_1,1,2020-01-01_00h00.00.000,FEPT_MR_v8r11_index1_pavlovia,2020.2.10,Win32,60,,0,,0,j,1,1.088,,0,,,,,,Images/Bl_M_Ang_002c.jpg,j,Images/mask.jpg,Images/FEPTAFVThumbFaces_claw_INSTRUCT_1.jpg,,,,,,,,,,,,,,,,,,,,,,,,,,,,0,2,2,2,1,,,,,,,,,,,,,,,,,,,,,,,,,,,,,,,,,,,,,,,,,,,,,,,,,,,,,,,,,,,,,,,,,,,,,,,,,,,,
,,,,,,,,,example_1,1,2020-01-01_00h00.00.000,FEPT_MR_v8r11_index1_pavlovia,2020.2.10,Win32,60,,0,,0,semicolon,0,1.784,,0,,,,,,Images/Wh_F_Hap_005c.jpg,k,Images/mask.jpg,Images/FEPTAFVThumbFaces_claw_INSTRUCT_1.jpg,,,,,,,,,,,,,,,,,,,,,,,,,,,,0,3,3,3,1,,,,,,,,,,,,,,,,,,,,,,,,,,,,,,,,,,,,,,,,,,,,,,,,,,,,,,,,,,,,,,,,,,,,,,,,,,,,
,,,,,,,,,example_1,1,2020-01-01_00h00.00.000,FEPT_MR_v8r11_index1_pavlovia,2020.2.10,Win32,60,,0,,0,,0,,k,0,,,,,,Images/Wh_M_Ang_006c.jpg,j,Images/mask.jpg,Images/FEPTAFVThumbFaces_claw_INSTRUCT_1.jpg,,,,,,,,,,,,,,,,,,,,,,,,,,,,0,4,4,4,1,0.168,,,,,,,,,,,,,,,,,,,,,,,,,,,,,,,,,,,,,,,,,,,,,,,,,,,,,,,,,,,,,,,,,,,,,,,,,,,
,,,,,,,,,example_1,1,2020-01-01_00h00.00.000,FEPT_MR_v8r11_index1_pavlovia,2020.2.10,Win32,60,,0,,0,semicolon,0,1.104,,0,,,,,,Images/Bl_M_Sad_303.jpg,space,Images/mask.jpg,Images/FEPTAFVThumbFaces_claw_INSTRUCT_1.jpg,,,,,,,,,,,,,,,,,,,,,,,,,,,,0,5,5,5,1,,,,,,,,,,,,,,,,,,,,,,,,,,,,,,,,,,,,,,,,,,,,,,,,,,,,,,,,,,,,,,,,,,,,,,,,,,,,
,,,,,,,,,example_1,1,2020-01-01_00h00.00.000,FEPT_MR_v8r11_index1_pavlovia,2020.2.10,Win32,60,,,,,,,,,,,,,,,,k,Images/mask.jpg,,,0,,0,k,1,1.055,,0,,,,,,Fi,Images/ANML_Fi_03.jpg,Images/FEPTAFVThumbAnimals_claw_INSTRUCT_1.jpg,,,,,,,,,,,,,,,,,0,0,0,0,1,,,,,,,,,,,,,,,,,,,,,,,,,,,,,,,,,,,,,,,,,,,,,,,,,,,,,,,,,,,,,,,,,,,,,,
,,,,,,,,,example_1,1,2020-01-01_00h00.00.000,FEPT_MR_v8r11_index1_pavlovia,2020.2.10,Win32,60,,,,,,,,,,,,,,,,space,Images/mask.jpg,,,0,,0,space,1,0.553,,0,,,,,,Do,Images/ANML_Do_01.jpg,Images/FEPTAFVThumbAnimals_claw_INSTRUCT_1.jpg,,,,,,,,,,,,,,,,,0,1,1,1,1,,,,,,,,,,,,,,,,,,,,,,,,,,,,,,,,,,,,,,,,,,,,,,,,,,,,,,,,,,,,,,,,,,,,,,
,,,,,,,,,example_1,1,2020-01-01_00h00.00.000,FEPT_MR_v8r11_index1_pavlovia,2020.2.10,Win32,60,,,,,,,,,,,,,,,,j,Images/mask.jpg,,,0,,0,j,1,0.605,,0,,,,,,Ct,Images/ANML_Ct_14.jpg,Images/FEPTAFVThumbAnimals_claw_INSTRUCT_1.jpg,,,,,,,,,,,,,,,,,0,2,2,2,1,,,,,,,,,,,,,,,,,,,,,,,,,,,,,,,,,,,,,,,,,,,,,,,,,,,,,,,,,,,,,,,,,,,,,,
,,,,,,,,,example_1,1,2020-01-01_00h00.00.000,FEPT_MR_v8r11_index1_pavlovia,2020.2.10,Win32,60,,,,,,,,,,,,,,,,k,Images/mask.jpg,,,0,,0,k,1,0.654,,0,,,,,,Fi,Images/ANML_Fi_04.jpg,Images/FEPTAFVThumbAnimals_claw_INSTRUCT_1.jpg,,,,,,,,,,,,,,,,,0,3,3,3,1,,,,,,,,,,,,,,,,,,,,,,,,,,,,,,,,,,,,,,,,,,,,,,,,,,,,,,,,,,,,,,,,,,,,,,
,,,,,,,,,example_1,1,2020-01-01_00h00.00.000,FEPT_MR_v8r11_index1_pavlovia,2020.2.10,Win32,60,,,,,,,,,,,,,,,,j,Images/mask.jpg,,,0,,0,j,1,0.56,,0,,,,,,Ct,Images/ANML_Ct_03.jpg,Images/FEPTAFVThumbAnimals_claw_INSTRUCT_1.jpg,,,,,,,,,,,,,,,,,0,4,4,4,1,,,,,,,,,,,,,,,,,,,,,,,,,,,,,,,,,,,,,,,,,,,,,,,,,,,,,,,,,,,,,,,,,,,,,,
,,,,,,,,,example_1,1,2020-01-01_00h00.00.000,FEPT_MR_v8r11_index1_pavlovia,2020.2.10,Win32,60,,,,,,,,,,,,,,,,l,Images/mask.jpg,,,0,,0,l,1,1.071,,0,,,,,,Bi,Images/ANML_Bi_19.jpg,Images/FEPTAFVThumbAnimals_claw_INSTRUCT_1.jpg,,,,,,,,,,,,,,,,,0,5,5,5,1,,,,,,,,,,,,,,,,,,,,,,,,,,,,,,,,,,,,,,,,,,,,,,,,,,,,,,,,,,,,,,,,,,,,,,
,,,,,,,,,example_1,1,2020-01-01_00h00.00.000,FEPT_MR_v8r11_index1_pavlovia,2020.2.10,Win32,60,,0,,0,semicolon,1,1.137,,0,,,,,,Images/Wh_F_Neu_002c.jpg,semicolon,Images/mask.jpg,Images/FEPTAFVThumbFaces_claw_INSTRUCT_1.jpg,,,,,,,,,,,,,,,,,,,,,,,,,,,,,,,,,,,,,,,0,0,0,0,1,,,,,,,,,,,,,,,,,,,,,,,,,,,,,,,,,,,,,,,,,,,,,,,,,,,,,,,,,,,,,,,,,
,,,,,,,,,example_1,1,2020-01-01_00h00.00.000,FEPT_MR_v8r11_index1_pavlovia,2020.2.10,Win32,60,,0,,0,l,1,1.606,,0,,,,,,Images/Wh_M_Fea_015c.jpg,l,Images/mask.jpg,Images/FEPTAFVThumbFaces_claw_INSTRUCT_1.jpg,,,,,,,,,,,,,,,,,,,,,,,,,,,,,,,,,,,,,,,0,1,1,1,1,,,,,,,,,,,,,,,,,,,,,,,,,,,,,,,,,,,,,,,,,,,,,,,,,,,,,,,,,,,,,,,,,
,,,,,,,,,example_1,1,2020-01-01_00h00.00.000,FEPT_MR_v8r11_index1_pavlovia,2020.2.10,Win32,60,,0,,0,k,1,0.707,,0,,,,,,Images/Bl_F_Hap_002c.jpg,k,Images/mask.jpg,Images/FEPTAFVThumbFaces_claw_INSTRUCT_1.jpg,,,,,,,,,,,,,,,,,,,,,,,,,,,,,,,,,,,,,,,0,2,2,2,1,,,,,,,,,,,,,,,,,,,,,,,,,,,,,,,,,,,,,,,,,,,,,,,,,,,,,,,,,,,,,,,,,
,,,,,,,,,example_1,1,2020-01-01_00h00.00.000,FEPT_MR_v8r11_index1_pavlovia,2020.2.10,Win32,60,,0,,0,semicolon,0,2.657,,0,,,,,,Images/Bl_F_Hap_025c.jpg,k,Images/mask.jpg,Images/FEPTAFVThumbFaces_claw_INSTRUCT_1.jpg,,,,,,,,,,,,,,,,,,,,,,,,,,,,,,,,,,,,,,,0,3,3,3,1,,,,,,,,,,,,,,,,,,,,,,,,,,,,,,,,,,,,,,,,,,,,,,,,,,,,,,,,,,,,,,,,,
,,,,,,,,,example_1,1,2020-01-01_00h00.00.000,FEPT_MR_v8r11_index1_pavlovia,2020.2.10,Win32,60,,0,,0,semicolon,1,0.653,,0,,,,,,Images/Bl_F_Neu_006c.jpg,semicolon,Images/mask.jpg,Images/FEPTAFVThumbFaces_claw_INSTRUCT_1.jpg,,,,,,,,,,,,,,,,,,,,,,,,,,,,,,,,,,,,,,,0,4,4,4,1,,,,,,,,,,,,,,,,,,,,,,,,,,,,,,,,,,,,,,,,,,,,,,,,,,,,,,,,,,,,,,,,,
,,,,,,,,,example_1,1,2020-01-01_00h00.00.000,FEPT_MR_v8r11_index1_pavlovia,2020.2.10,Win32,60,,0,,0,l,1,0.654,,0,,,,,,Images/Wh_F_Fea_009c.jpg,l,Images/mask.jpg,Images/FEPTAFVThumbFaces_claw_INSTRUCT_1.jpg,,,,,,,,,,,,,,,,,,,,,,,,,,,,,,,,,,,,,,,0,5,5,5,1,,,,,,,,,,,,,,,,,,,,,,,,,,,,,,,,,,,,,,,,,,,,,,,,,,,,,,,,,,,,,,,,,
,,,,,,,,,example_1,1,2020-01-01_00h00.00.000,FEPT_MR_v8r11_index1_pavlovia,2020.2.10,Win32,60,,,,,,,,,,,,,,,,space,Images/mask.jpg,,,0,,0,space,1,0.704,,0,,,,,,Do,Images/ANML_Do_14.jpg,Images/FEPTAFVThumbAnimals_claw_INSTRUCT_1.jpg,,,,,,,,,,,,,,,,,,,,,,,,,,,0,0,0,0,1,,,,,,,,,,,,,,,,,,,,,,,,,,,,,,,,,,,,,,,,,,,,,,,,,,,,,,,,,,,,
,,,,,,,,,example_1,1,2020-01-01_00h00.00.000,FEPT_MR_v8r11_index1_pavlovia,2020.2.10,Win32,60,,,,,,,,,,,,,,,,l,Images/mask.jpg,,,0,,0,l,1,0.94,,0,,,,,,Bi,Images/ANML_Bi_06.jpg,Images/FEPTAFVThumbAnimals_claw_INSTRUCT_1.jpg,,,,,,,,,,,,,,,,,,,,,,,,,,,0,1,1,1,1,,,,,,,,,,,,,,,,,,,,,,,,,,,,,,,,,,,,,,,,,,,,,,,,,,,,,,,,,,,,
,,,,,,,,,example_1,1,2020-01-01_00h00.00.000,FEPT_MR_v8r11_index1_pavlovia,2020.2.10,Win32,60,,,,,,,,,,,,,,,,j,Images/mask.jpg,,,0,,0,j,1,0.843,,0,,,,,,Ct,Images/ANML_Ct_15.jpg,Images/FEPTAFVThumbAnimals_claw_INSTRUCT_1.jpg,,,,,,,,,,,,,,,,,,,,,,,,,,,0,2,2,2,1,,,,,,,,,,,,,,,,,,,,,,,,,,,,,,,,,,,,,,,,,,,,,,,,,,,,,,,,,,,,
,,,,,,,,,example_1,1,2020-01-01_00h00.00.000,FEPT_MR_v8r11_index1_pavlovia,2020.2.10,Win32,60,,,,,,,,,,,,,,,,k,Images/mask.jpg,,,0,,0,k,1,0.823,,0,,,,,,Fi,Images/ANML_Fi_05.jpg,Images/FEPTAFVThumbAnimals_claw_INSTRUCT_1.jpg,,,,,,,,,,,,,,,,,,,,,,,,,,,0,3,3,3,1,,,,,,,,,,,,,,,,,,,,,,,,,,,,,,,,,,,,,,,,,,,,,,,,,,,,,,,,,,,,
,,,,,,,,,example_1,1,2020-01-01_00h00.00.000,FEPT_MR_v8r11_index1_pavlovia,2020.2.10,Win32,60,,,,,,,,,,,,,,,,semicolon,Images/mask.jpg,,,0,,0,semicolon,1,1.358,,0,,,,,,Co,Images/ANML_Co_05.jpg,Images/FEPTAFVThumbAnimals_claw_INSTRUCT_1.jpg,,,,,,,,,,,,,,,,,,,,,,,,,,,0,4,4,4,1,,,,,,,,,,,,,,,,,,,,,,,,,,,,,,,,,,,,,,,,,,,,,,,,,,,,,,,,,,,,
,,,,,,,,,example_1,1,2020-01-01_00h00.00.000,FEPT_MR_v8r11_index1_pavlovia,2020.2.10,Win32,60,,,,,,,,,,,,,,,,k,Images/mask.jpg,,,0,,0,k,1,1.323,,0,,,,,,Fi,Images/ANML_Fi_06.jpg,Images/FEPTAFVThumbAnimals_claw_INSTRUCT_1.jpg,,,,,,,,,,,,,,,,,,,,,,,,,,,0,5,5,5,1,,,,,,,,,,,,,,,,,,,,,,,,,,,,,,,,,,,,,,,,,,,,,,,,,,,,,,,,,,,,
,,,,,,,,,example_1,1,2020-01-01_00h00.00.000,FEPT_MR_v8r11_index1_pavlovia,2020.2.10,Win32,60,,0,,0,semicolon,1,0.957,,0,,,,,,Images/As_M_Neu_201c.jpg,semicolon,Images/mask.jpg,Images/FEPTAFVThumbFaces_claw_INSTRUCT_1.jpg,,,,,,,,,,,,,,,,,,,,,,,,,,,,,,,,,,,,,,,,,,,,,,,,,0,0,0,0,1,,,,,,,,,,,,,,,,,,,,,,,,,,,,,,,,,,,,,,,,,,,,,,,,,,,,,,,
,,,,,,,,,example_1,1,2020-01-01_00h00.00.000,FEPT_MR_v8r11_index1_pavlovia,2020.2.10,Win32,60,,0,,0,semicolon,1,0.667,,0,,,,,,Images/As_F_Neu_206c.jpg,semicolon,Images/mask.jpg,Images/FEPTAFVThumbFaces_claw_INSTRUCT_1.jpg,,,,,,,,,,,,,,,,,,,,,,,,,,,,,,,,,,,,,,,,,,,,,,,,,0,1,1,1,1,,,,,,,,,,,,,,,,,,,,,,,,,,,,,,,,,,,,,,,,,,,,,,,,,,,,,,,
,,,,,,,,,example_1,1,2020-01-01_00h00.00.000,FEPT_MR_v8r11_index1_pavlovia,2020.2.10,Win32,60,,0,,0,space,1,0.453,,0,,,,,,Images/Wh_M_Sad_203.jpg,space,Images/mask.jpg,Images/FEPTAFVThumbFaces_claw_INSTRUCT_1.jpg,,,,,,,,,,,,,,,,,,,,,,,,,,,,,,,,,,,,,,,,,,,,,,,,,0,2,2,2,1,,,,,,,,,,,,,,,,,,,,,,,,,,,,,,,,,,,,,,,,,,,,,,,,,,,,,,,
,,,,,,,,,example_1,1,2020-01-01_00h00.00.000,FEPT_MR_v8r11_index1_pavlovia,2020.2.10,Win32,60,,0,,0,semicolon,0,0.67,,0,,,,,,Images/As_M_Ang_101.jpg,j,Images/mask.jpg,Images/FEPTAFVThumbFaces_claw_INSTRUCT_1.jpg,,,,,,,,,,,,,,,,,,,,,,,,,,,,,,,,,,,,,,,,,,,,,,,,,0,3,3,3,1,,,,,,,,,,,,,,,,,,,,,,,,,,,,,,,,,,,,,,,,,,,,,,,,,,,,,,,
,,,,,,,,,example_1,1,2020-01-01_00h00.00.000,FEPT_MR_v8r11_index1_pavlovia,2020.2.10,Win32,60,,0,,0,space,1,0.408,,0,,,,,,Images/Wh_F_Sad_253.jpg,space,Images/mask.jpg,Images/FEPTAFVThumbFaces_claw_INSTRUCT_1.jpg,,,,,,,,,,,,,,,,,,,,,,,,,,,,,,,,,,,,,,,,,,,,,,,,,0,4,4,4,1,,,,,,,,,,,,,,,,,,,,,,,,,,,,,,,,,,,,,,,,,,,,,,,,,,,,,,,
,,,,,,,,,example_1,1,2020-01-01_00h00.00.000,FEPT_MR_v8r11_index1_pavlovia,2020.2.10,Win32,60,,0,,0,k,1,0.82,,0,,,,,,Images/As_M_Hap_102.jpg,k,Images/mask.jpg,Images/FEPTAFVThumbFaces_claw_INSTRUCT_1.jpg,,,,,,,,,,,,,,,,,,,,,,,,,,,,,,,,,,,,,,,,,,,,,,,,,0,5,5,5,1,,,,,,,,,,,,,,,,,,,,,,,,,,,,,,,,,,,,,,,,,,,,,,,,,,,,,,,
,,,,,,,,,example_1,1,2020-01-01_00h00.00.000,FEPT_MR_v8r11_index1_pavlovia,2020.2.10,Win32,60,,,,,,,,,,,,,,,,k,Images/mask.jpg,,,0,,0,k,1,0.858,,0,,,,,,Fi,Images/ANML_Fi_07.jpg,Images/FEPTAFVThumbAnimals_claw_INSTRUCT_1.jpg,,,,,,,,,,,,,,,,,,,,,,,,,,,,,,,,,,,,,0,0,0,0,1,,,,,,,,,,,,,,,,,,,,,,,,,,,,,,,,,,,,,,,,,,,,,,,,,,
,,,,,,,,,example_1,1,2020-01-01_00h00.00.000,FEPT_MR_v8r11_index1_pavlovia,2020.2.10,Win32,60,,,,,,,,,,,,,,,,space,Images/mask.jpg,,,0,,0,space,1,0.57,,0,,,,,,Do,Images/ANML_Do_15.jpg,Images/FEPTAFVThumbAnimals_claw_INSTRUCT_1.jpg,,,,,,,,,,,,,,,,,,,,,,,,,,,,,,,,,,,,,0,1,1,1,1,,,,,,,,,,,,,,,,,,,,,,,,,,,,,,,,,,,,,,,,,,,,,,,,,,
,,,,,,,,,example_1,1,2020-01-01_00h00.00.000,FEPT_MR_v8r11_index1_pavlovia,2020.2.10,Win32,60,,,,,,,,,,,,,,,,l,Images/mask.jpg,,,0,,0,l,1,0.705,,0,,,,,,Bi,Images/ANML_Bi_20.jpg,Images/FEPTAFVThumbAnimals_claw_INSTRUCT_1.jpg,,,,,,,,,,,,,,,,,,,,,,,,,,,,,,,,,,,,,0,2,2,2,1,,,,,,,,,,,,,,,,,,,,,,,,,,,,,,,,,,,,,,,,,,,,,,,,,,
,,,,,,,,,example_1,1,2020-01-01_00h00.00.000,FEPT_MR_v8r11_index1_pavlovia,2020.2.10,Win32,60,,,,,,,,,,,,,,,,space,Images/mask.jpg,,,0,,0,space,1,0.507,,0,,,,,,Do,Images/ANML_Do_16.jpg,Images/FEPTAFVThumbAnimals_claw_INSTRUCT_1.jpg,,,,,,,,,,,,,,,,,,,,,,,,,,,,,,,,,,,,,0,3,3,3,1,,,,,,,,,,,,,,,,,,,,,,,,,,,,,,,,,,,,,,,,,,,,,,,,,,
,,,,,,,,,example_1,1,2020-01-01_00h00.00.000,FEPT_MR_v8r11_index1_pavlovia,2020.2.10,Win32,60,,,,,,,,,,,,,,,,j,Images/mask.jpg,,,0,,0,j,1,0.542,,0,,,,,,Ct,Images/ANML_Ct_16.jpg,Images/FEPTAFVThumbAnimals_claw_INSTRUCT_1.jpg,,,,,,,,,,,,,,,,,,,,,,,,,,,,,,,,,,,,,0,4,4,4,1,,,,,,,,,,,,,,,,,,,,,,,,,,,,,,,,,,,,,,,,,,,,,,,,,,
,,,,,,,,,example_1,1,2020-01-01_00h00.00.000,FEPT_MR_v8r11_index1_pavlovia,2020.2.10,Win32,60,,,,,,,,,,,,,,,,l,Images/mask.jpg,,,0,,0,l,1,1.023,,0,,,,,,Bi,Images/ANML_Bi_08.jpg,Images/FEPTAFVThumbAnimals_claw_INSTRUCT_1.jpg,,,,,,,,,,,,,,,,,,,,,,,,,,,,,,,,,,,,,0,5,5,5,1,,,,,,,,,,,,,,,,,,,,,,,,,,,,,,,,,,,,,,,,,,,,,,,,,,
,,,,,,,,,example_1,1,2020-01-01_00h00.00.000,FEPT_MR_v8r11_index1_pavlovia,2020.2.10,Win32,60,,0,,0,space,1,1.22,,0,,,,,,Images/Bl_F_Sad_353.jpg,space,Images/mask.jpg,Images/FEPTAFVThumbFaces_claw_INSTRUCT_1.jpg,,,,,,,,,,,,,,,,,,,,,,,,,,,,,,,,,,,,,,,,,,,,,,,,,,,,,,,,,,,0,0,0,0,1,,,,,,,,,,,,,,,,,,,,,,,,,,,,,,,,,,,,,,,,,,,,,
,,,,,,,,,example_1,1,2020-01-01_00h00.00.000,FEPT_MR_v8r11_index1_pavlovia,2020.2.10,Win32,60,,0,,0,l,1,1.673,,0,,,,,,Images/Bl_F_Fea_013c.jpg,l,Images/mask.jpg,Images/FEPTAFVThumbFaces_claw_INSTRUCT_1.jpg,,,,,,,,,,,,,,,,,,,,,,,,,,,,,,,,,,,,,,,,,,,,,,,,,,,,,,,,,,,0,1,1,1,1,,,,,,,,,,,,,,,,,,,,,,,,,,,,,,,,,,,,,,,,,,,,,
,,,,,,,,,example_1,1,2020-01-01_00h00.00.000,FEPT_MR_v8r11_index1_pavlovia,2020.2.10,Win32,60,,0,,0,j,1,0.521,,0,,,,,,Images/Wh_M_Ang_016c.jpg,j,Images/mask.jpg,Images/FEPTAFVThumbFaces_claw_INSTRUCT_1.jpg,,,,,,,,,,,,,,,,,,,,,,,,,,,,,,,,,,,,,,,,,,,,,,,,,,,,,,,,,,,0,2,2,2,1,,,,,,,,,,,,,,,,,,,,,,,,,,,,,,,,,,,,,,,,,,,,,
,,,,,,,,,example_1,1,2020-01-01_00h00.00.000,FEPT_MR_v8r11_index1_pavlovia,2020.2.10,Win32,60,,0,,0,j,1,0.403,,0,,,,,,Images/Wh_F_Ang_009c.jpg,j,Images/mask.jpg,Images/FEPTAFVThumbFaces_claw_INSTRUCT_1.jpg,,,,,,,,,,,,,,,,,,,,,,,,,,,,,,,,,,,,,,,,,,,,,,,,,,,,,,,,,,,0,3,3,3,1,,,,,,,,,,,,,,,,,,,,,,,,,,,,,,,,,,,,,,,,,,,,,
,,,,,,,,,example_1,1,2020-01-01_00h00.00.000,FEPT_MR_v8r11_index1_pavlovia,2020.2.10,Win32,60,,0,,0,space,1,0.589,,0,,,,,,Images/Bl_M_Sad_313.jpg,space,Images/mask.jpg,Images/FEPTAFVThumbFaces_claw_INSTRUCT_1.jpg,,,,,,,,,,,,,,,,,,,,,,,,,,,,,,,,,,,,,,,,,,,,,,,,,,,,,,,,,,,0,4,4,4,1,,,,,,,,,,,,,,,,,,,,,,,,,,,,,,,,,,,,,,,,,,,,,
,,,,,,,,,example_1,1,2020-01-01_00h00.00.000,FEPT_MR_v8r11_index1_pavlovia,2020.2.10,Win32,60,,0,,0,space,1,0.723,,0,,,,,,Images/As_F_Sad_153.jpg,space,Images/mask.jpg,Images/FEPTAFVThumbFaces_claw_INSTRUCT_1.jpg,,,,,,,,,,,,,,,,,,,,,,,,,,,,,,,,,,,,,,,,,,,,,,,,,,,,,,,,,,,0,5,5,5,1,,,,,,,,,,,,,,,,,,,,,,,,,,,,,,,,,,,,,,,,,,,,,
,,,,,,,,,example_1,1,2020-01-01_00h00.00.000,FEPT_MR_v8r11_index1_pavlovia,2020.2.10,Win32,60,,,,,,,,,,,,,,,,space,Images/mask.jpg,,,0,,0,space,1,0.054,,0,,,,,,Do,Images/ANML_Do_06.jpg,Images/FEPTAFVThumbAnimals_claw_INSTRUCT_1.jpg,,,,,,,,,,,,,,,,,,,,,,,,,,,,,,,,,,,,,,,,,,,,,,,0,0,0,0,1,,,,,,,,,,,,,,,,,,,,,,,,,,,,,,,,,,,,,,,,
,,,,,,,,,example_1,1,2020-01-01_00h00.00.000,FEPT_MR_v8r11_index1_pavlovia,2020.2.10,Win32,60,,,,,,,,,,,,,,,,l,Images/mask.jpg,,,0,,0,l,1,1.642,,0,,,,,,Bi,Images/ANML_Bi_09.jpg,Images/FEPTAFVThumbAnimals_claw_INSTRUCT_1.jpg,,,,,,,,,,,,,,,,,,,,,,,,,,,,,,,,,,,,,,,,,,,,,,,0,1,1,1,1,,,,,,,,,,,,,,,,,,,,,,,,,,,,,,,,,,,,,,,,
,,,,,,,,,example_1,1,2020-01-01_00h00.00.000,FEPT_MR_v8r11_index1_pavlovia,2020.2.10,Win32,60,,,,,,,,,,,,,,,,k,Images/mask.jpg,,,0,,0,k,1,0.775,,0,,,,,,Fi,Images/ANML_Fi_08.jpg,Images/FEPTAFVThumbAnimals_claw_INSTRUCT_1.jpg,,,,,,,,,,,,,,,,,,,,,,,,,,,,,,,,,,,,,,,,,,,,,,,0,2,2,2,1,,,,,,,,,,,,,,,,,,,,,,,,,,,,,,,,,,,,,,,,
,,,,,,,,,example_1,1,2020-01-01_00h00.00.000,FEPT_MR_v8r11_index1_pavlovia,2020.2.10,Win32,60,,,,,,,,,,,,,,,,semicolon,Images/mask.jpg,,,0,,0,semicolon,1,0.988,,0,,,,,,Co,Images/ANML_Co_06.jpg,Images/FEPTAFVThumbAnimals_claw_INSTRUCT_1.jpg,,,,,,,,,,,,,,,,,,,,,,,,,,,,,,,,,,,,,,,,,,,,,,,0,3,3,3,1,,,,,,,,,,,,,,,,,,,,,,,,,,,,,,,,,,,,,,,,
,,,,,,,,,example_1,1,2020-01-01_00h00.00.000,FEPT_MR_v8r11_index1_pavlovia,2020.2.10,Win32,60,,,,,,,,,,,,,,,,j,Images/mask.jpg,,,0,,0,j,1,0.703,,0,,,,,,Ct,Images/ANML_Ct_26.jpg,Images/FEPTAFVThumbAnimals_claw_INSTRUCT_1.jpg,,,,,,,,,,,,,,,,,,,,,,,,,,,,,,,,,,,,,,,,,,,,,,,0,4,4,4,1,,,,,,,,,,,,,,,,,,,,,,,,,,,,,,,,,,,,,,,,
,,,,,,,,,example_1,1,2020-01-01_00h00.00.000,FEPT_MR_v8r11_index1_pavlovia,2020.2.10,Win32,60,,,,,,,,,,,,,,,,l,Images/mask.jpg,,,0,,0,l,1,0.653,,0,,,,,,Bi,Images/ANML_Bi_10.jpg,Images/FEPTAFVThumbAnimals_claw_INSTRUCT_1.jpg,,,,,,,,,,,,,,,,,,,,,,,,,,,,,,,,,,,,,,,,,,,,,,,0,5,5,5,1,,,,,,,,,,,,,,,,,,,,,,,,,,,,,,,,,,,,,,,,
,,,,,,,,,example_1,1,2020-01-01_00h00.00.000,FEPT_MR_v8r11_index1_pavlovia,2020.2.10,Win32,60,,0,,0,space,0,1.737,l,1,,,,,,Images/As_M_Fea_114.jpg,l,Images/mask.jpg,Images/FEPTAFVThumbFaces_claw_INSTRUCT_1.jpg,,,,,,,,,,,,,,,,,,,,,,,,,,,,,,,,,0.058,,,,,,,,,,,,,,,,,,,,,,,,,,,,,,,,,,,,0,0,0,0,1,,,,,,,,,,,,,,,,,,,,,,,,,,,,,,,,,,,
,,,,,,,,,example_1,1,2020-01-01_00h00.00.000,FEPT_MR_v8r11_index1_pavlovia,2020.2.10,Win32,60,,0,,0,,0,,,0,,,,,,Images/Wh_F_Neu_009c.jpg,semicolon,Images/mask.jpg,Images/FEPTAFVThumbFaces_claw_INSTRUCT_1.jpg,,,,,,,,,,,,,,,,,,,,,,,,,,,,,,,,,,,,,,,,,,,,,,,,,,,,,,,,,,,,,,,,,,,,,0,1,1,1,1,,,,,,,,,,,,,,,,,,,,,,,,,,,,,,,,,,,
,,,,,,,,,example_1,1,2020-01-01_00h00.00.000,FEPT_MR_v8r11_index1_pavlovia,2020.2.10,Win32,60,,0,,0,semicolon,0,0.723,,0,,,,,,Images/As_F_Ang_151.jpg,j,Images/mask.jpg,Images/FEPTAFVThumbFaces_claw_INSTRUCT_1.jpg,,,,,,,,,,,,,,,,,,,,,,,,,,,,,,,,,,,,,,,,,,,,,,,,,,,,,,,,,,,,,,,,,,,,,0,2,2,2,1,,,,,,,,,,,,,,,,,,,,,,,,,,,,,,,,,,,
,,,,,,,,,example_1,1,2020-01-01_00h00.00.000,FEPT_MR_v8r11_index1_pavlovia,2020.2.10,Win32,60,,0,,0,l,1,1.041,,0,,,,,,Images/Wh_M_Fea_031c.jpg,l,Images/mask.jpg,Images/FEPTAFVThumbFaces_claw_INSTRUCT_1.jpg,,,,,,,,,,,,,,,,,,,,,,,,,,,,,,,,,,,,,,,,,,,,,,,,,,,,,,,,,,,,,,,,,,,,,0,3,3,3,1,,,,,,,,,,,,,,,,,,,,,,,,,,,,,,,,,,,
,,,,,,,,,example_1,1,2020-01-01_00h00.00.000,FEPT_MR_v8r11_index1_pavlovia,2020.2.10,Win32,60,,0,,0,l,1,0.772,,0,,,,,,Images/As_F_Fea_154.jpg,l,Images/mask.jpg,Images/FEPTAFVThumbFaces_claw_INSTRUCT_1.jpg,,,,,,,,,,,,,,,,,,,,,,,,,,,,,,,,,,,,,,,,,,,,,,,,,,,,,,,,,,,,,,,,,,,,,0,4,4,4,1,,,,,,,,,,,,,,,,,,,,,,,,,,,,,,,,,,,
,,,,,,,,,example_1,1,2020-01-01_00h00.00.000,FEPT_MR_v8r11_index1_pavlovia,2020.2.10,Win32,60,,0,,0,semicolon,0,2.058,,0,,,,,,Images/Wh_M_Hap_006c.jpg,k,Images/mask.jpg,Images/FEPTAFVThumbFaces_claw_INSTRUCT_1.jpg,,,,,,,,,,,,,,,,,,,,,,,,,,,,,,,,,,,,,,,,,,,,,,,,,,,,,,,,,,,,,,,,,,,,,0,5,5,5,1,,,,,,,,,,,,,,,,,,,,,,,,,,,,,,,,,,,
,,,,,,,,,example_1,1,2020-01-01_00h00.00.000,FEPT_MR_v8r11_index1_pavlovia,2020.2.10,Win32,60,,,,,,,,,,,,,,,,semicolon,Images/mask.jpg,,,0,,0,semicolon,1,0.487,,0,,,,,,Co,Images/ANML_Co_16.jpg,Images/FEPTAFVThumbAnimals_claw_INSTRUCT_1.jpg,,,,,,,,,,,,,,,,,,,,,,,,,,,,,,,,,,,,,,,,,,,,,,,,,,,,,,,,,0,0,0,0,1,,,,,,,,,,,,,,,,,,,,,,,,,,,,,,
,,,,,,,,,example_1,1,2020-01-01_00h00.00.000,FEPT_MR_v8r11_index1_pavlovia,2020.2.10,Win32,60,,,,,,,,,,,,,,,,space,Images/mask.jpg,,,0,,0,space,1,0.838,,0,,,,,,Do,Images/ANML_Do_07.jpg,Images/FEPTAFVThumbAnimals_claw_INSTRUCT_1.jpg,,,,,,,,,,,,,,,,,,,,,,,,,,,,,,,,,,,,,,,,,,,,,,,,,,,,,,,,,0,1,1,1,1,,,,,,,,,,,,,,,,,,,,,,,,,,,,,,
,,,,,,,,,example_1,1,2020-01-01_00h00.00.000,FEPT_MR_v8r11_index1_pavlovia,2020.2.10,Win32,60,,,,,,,,,,,,,,,,j,Images/mask.jpg,,,0,,0,j,1,1.538,,0,,,,,,Ct,Images/ANML_Ct_07.jpg,Images/FEPTAFVThumbAnimals_claw_INSTRUCT_1.jpg,,,,,,,,,,,,,,,,,,,,,,,,,,,,,,,,,,,,,,,,,,,,,,,,,,,,,,,,,0,2,2,2,1,,,,,,,,,,,,,,,,,,,,,,,,,,,,,,
,,,,,,,,,example_1,1,2020-01-01_00h00.00.000,FEPT_MR_v8r11_index1_pavlovia,2020.2.10,Win32,60,,,,,,,,,,,,,,,,l,Images/mask.jpg,,,0,,0,l,1,0.886,,0,,,,,,Bi,Images/ANML_Bi_11.jpg,Images/FEPTAFVThumbAnimals_claw_INSTRUCT_1.jpg,,,,,,,,,,,,,,,,,,,,,,,,,,,,,,,,,,,,,,,,,,,,,,,,,,,,,,,,,0,3,3,3,1,,,,,,,,,,,,,,,,,,,,,,,,,,,,,,
,,,,,,,,,example_1,1,2020-01-01_00h00.00.000,FEPT_MR_v8r11_index1_pavlovia,2020.2.10,Win32,60,,,,,,,,,,,,,,,,semicolon,Images/mask.jpg,,,0,,0,semicolon,1,0.551,,0,,,,,,Co,Images/ANML_Co_08.jpg,Images/FEPTAFVThumbAnimals_claw_INSTRUCT_1.jpg,,,,,,,,,,,,,,,,,,,,,,,,,,,,,,,,,,,,,,,,,,,,,,,,,,,,,,,,,0,4,4,4,1,,,,,,,,,,,,,,,,,,,,,,,,,,,,,,
,,,,,,,,,example_1,1,2020-01-01_00h00.00.000,FEPT_MR_v8r11_index1_pavlovia,2020.2.10,Win32,60,,,,,,,,,,,,,,,,j,Images/mask.jpg,,,0,,0,j,1,0.973,,0,,,,,,Ct,Images/ANML_Ct_08.jpg,Images/FEPTAFVThumbAnimals_claw_INSTRUCT_1.jpg,,,,,,,,,,,,,,,,,,,,,,,,,,,,,,,,,,,,,,,,,,,,,,,,,,,,,,,,,0,5,5,5,1,,,,,,,,,,,,,,,,,,,,,,,,,,,,,,
,,,,,,,,,example_1,1,2020-01-01_00h00.00.000,FEPT_MR_v8r11_index1_pavlovia,2020.2.10,Win32,60,,0,,0,semicolon,0,2.408,,0,,,,,,Images/As_F_Ang_181.jpg,j,Images/mask.jpg,Images/FEPTAFVThumbFaces_claw_INSTRUCT_1.jpg,,,,,,,,,,,,,,,,,,,,,,,,,,,,,,,,,,,,,,,,,,,,,,,,,,,,,,,,,,,,,,,,,,,,,,,,,,,,,,,0,0,0,0,1,,,,,,,,,,,,,,,,,,,,,,,,,
,,,,,,,,,example_1,1,2020-01-01_00h00.00.000,FEPT_MR_v8r11_index1_pavlovia,2020.2.10,Win32,60,,0,,0,k,1,1.205,,0,,,,,,Images/As_M_Hap_112.jpg,k,Images/mask.jpg,Images/FEPTAFVThumbFaces_claw_INSTRUCT_1.jpg,,,,,,,,,,,,,,,,,,,,,,,,,,,,,,,,,,,,,,,,,,,,,,,,,,,,,,,,,,,,,,,,,,,,,,,,,,,,,,,0,1,1,1,1,,,,,,,,,,,,,,,,,,,,,,,,,
,,,,,,,,,example_1,1,2020-01-01_00h00.00.000,FEPT_MR_v8r11_index1_pavlovia,2020.2.10,Win32,60,,0,,0,j,1,1.077,,0,,,,,,Images/Bl_F_Ang_013c.jpg,j,Images/mask.jpg,Images/FEPTAFVThumbFaces_claw_INSTRUCT_1.jpg,,,,,,,,,,,,,,,,,,,,,,,,,,,,,,,,,,,,,,,,,,,,,,,,,,,,,,,,,,,,,,,,,,,,,,,,,,,,,,,0,2,2,2,1,,,,,,,,,,,,,,,,,,,,,,,,,
,,,,,,,,,example_1,1,2020-01-01_00h00.00.000,FEPT_MR_v8r11_index1_pavlovia,2020.2.10,Win32,60,,0,,0,l,1,0.689,,0,,,,,,Images/As_F_Fea_164.jpg,l,Images/mask.jpg,Images/FEPTAFVThumbFaces_claw_INSTRUCT_1.jpg,,,,,,,,,,,,,,,,,,,,,,,,,,,,,,,,,,,,,,,,,,,,,,,,,,,,,,,,,,,,,,,,,,,,,,,,,,,,,,,0,3,3,3,1,,,,,,,,,,,,,,,,,,,,,,,,,
,,,,,,,,,example_1,1,2020-01-01_00h00.00.000,FEPT_MR_v8r11_index1_pavlovia,2020.2.10,Win32,60,,0,,0,semicolon,1,0.673,,0,,,,,,Images/Bl_M_Neu_011c.jpg,semicolon,Images/mask.jpg,Images/FEPTAFVThumbFaces_claw_INSTRUCT_1.jpg,,,,,,,,,,,,,,,,,,,,,,,,,,,,,,,,,,,,,,,,,,,,,,,,,,,,,,,,,,,,,,,,,,,,,,,,,,,,,,,0,4,4,4,1,,,,,,,,,,,,,,,,,,,,,,,,,
,,,,,,,,,example_1,1,2020-01-01_00h00.00.000,FEPT_MR_v8r11_index1_pavlovia,2020.2.10,Win32,60,,0,,0,semicolon,0,0.717,,0,,,,,,Images/As_M_Ang_111.jpg,j,Images/mask.jpg,Images/FEPTAFVThumbFaces_claw_INSTRUCT_1.jpg,,,,,,,,,,,,,,,,,,,,,,,,,,,,,,,,,,,,,,,,,,,,,,,,,,,,,,,,,,,,,,,,,,,,,,,,,,,,,,,0,5,5,5,1,,,,,,,,,,,,,,,,,,,,,,,,,
,,,,,,,,,example_1,1,2020-01-01_00h00.00.000,FEPT_MR_v8r11_index1_pavlovia,2020.2.10,Win32,60,,,,,,,,,,,,,,,,space,Images/mask.jpg,,,0,,0,space,1,1.006,,0,,,,,,Do,Images/ANML_Do_08.jpg,Images/FEPTAFVThumbAnimals_claw_INSTRUCT_1.jpg,,,,,,,,,,,,,,,,,,,,,,,,,,,,,,,,,,,,,,,,,,,,,,,,,,,,,,,,,,,,,,,,,,,0,0,0,0,1,,,,,,,,,,,,,,,,,,,,
,,,,,,,,,example_1,1,2020-01-01_00h00.00.000,FEPT_MR_v8r11_index1_pavlovia,2020.2.10,Win32,60,,,,,,,,,,,,,,,,semicolon,Images/mask.jpg,,,0,,0,semicolon,1,1.126,,0,,,,,,Co,Images/ANML_Co_09.jpg,Images/FEPTAFVThumbAnimals_claw_INSTRUCT_1.jpg,,,,,,,,,,,,,,,,,,,,,,,,,,,,,,,,,,,,,,,,,,,,,,,,,,,,,,,,,,,,,,,,,,,0,1,1,1,1,,,,,,,,,,,,,,,,,,,,
,,,,,,,,,example_1,1,2020-01-01_00h00.00.000,FEPT_MR_v8r11_index1_pavlovia,2020.2.10,Win32,60,,,,,,,,,,,,,,,,k,Images/mask.jpg,,,0,,0,k,1,1.157,,0,,,,,,Fi,Images/ANML_Fi_09.jpg,Images/FEPTAFVThumbAnimals_claw_INSTRUCT_1.jpg,,,,,,,,,,,,,,,,,,,,,,,,,,,,,,,,,,,,,,,,,,,,,,,,,,,,,,,,,,,,,,,,,,,0,2,2,2,1,,,,,,,,,,,,,,,,,,,,
,,,,,,,,,example_1,1,2020-01-01_00h00.00.000,FEPT_MR_v8r11_index1_pavlovia,2020.2.10,Win32,60,,,,,,,,,,,,,,,,space,Images/mask.jpg,,,0,,0,space,1,0.635,,0,,,,,,Do,Images/ANML_Do_09.jpg,Images/FEPTAFVThumbAnimals_claw_INSTRUCT_1.jpg,,,,,,,,,,,,,,,,,,,,,,,,,,,,,,,,,,,,,,,,,,,,,,,,,,,,,,,,,,,,,,,,,,,0,3,3,3,1,,,,,,,,,,,,,,,,,,,,
,,,,,,,,,example_1,1,2020-01-01_00h00.00.000,FEPT_MR_v8r11_index1_pavlovia,2020.2.10,Win32,60,,,,,,,,,,,,,,,,l,Images/mask.jpg,,,0,,0,l,1,1.126,,0,,,,,,Bi,Images/ANML_Bi_12.jpg,Images/FEPTAFVThumbAnimals_claw_INSTRUCT_1.jpg,,,,,,,,,,,,,,,,,,,,,,,,,,,,,,,,,,,,,,,,,,,,,,,,,,,,,,,,,,,,,,,,,,,0,4,4,4,1,,,,,,,,,,,,,,,,,,,,
,,,,,,,,,example_1,1,2020-01-01_00h00.00.000,FEPT_MR_v8r11_index1_pavlovia,2020.2.10,Win32,60,,,,,,,,,,,,,,,,k,Images/mask.jpg,,,0,,0,k,1,0.771,,0,,,,,,Fi,Images/ANML_Fi_10.jpg,Images/FEPTAFVThumbAnimals_claw_INSTRUCT_1.jpg,,,,,,,,,,,,,,,,,,,,,,,,,,,,,,,,,,,,,,,,,,,,,,,,,,,,,,,,,,,,,,,,,,,0,5,5,5,1,,,,,,,,,,,,,,,,,,,,
,,,,,,,,,example_1,1,2020-01-01_00h00.00.000,FEPT_MR_v8r11_index1_pavlovia,2020.2.10,Win32,60,,0,,0,l,1,2.007,,0,,,,,,Images/Bl_F_Fea_036c.jpg,l,Images/mask.jpg,Images/FEPTAFVThumbFaces_claw_INSTRUCT_1.jpg,,,,,,,,,,,,,,,,,,,,,,,,,,,,,,,,,,,,,,,,,,,,,,,,,,,,,,,,,,,,,,,,,,,,,,,,,,,,,,,,,,,,,,,,,0,0,0,0,1,,,,,,,,,,,,,,,
,,,,,,,,,example_1,1,2020-01-01_00h00.00.000,FEPT_MR_v8r11_index1_pavlovia,2020.2.10,Win32,60,,0,,0,semicolon,1,0.688,,0,,,,,,Images/Bl_F_Neu_041c.jpg,semicolon,Images/mask.jpg,Images/FEPTAFVThumbFaces_claw_INSTRUCT_1.jpg,,,,,,,,,,,,,,,,,,,,,,,,,,,,,,,,,,,,,,,,,,,,,,,,,,,,,,,,,,,,,,,,,,,,,,,,,,,,,,,,,,,,,,,,,0,1,1,1,1,,,,,,,,,,,,,,,
,,,,,,,,,example_1,1,2020-01-01_00h00.00.000,FEPT_MR_v8r11_index1_pavlovia,2020.2.10,Win32,60,,0,,0,space,1,0.989,,0,,,,,,Images/As_M_Sad_103.jpg,space,Images/mask.jpg,Images/FEPTAFVThumbFaces_claw_INSTRUCT_1.jpg,,,,,,,,,,,,,,,,,,,,,,,,,,,,,,,,,,,,,,,,,,,,,,,,,,,,,,,,,,,,,,,,,,,,,,,,,,,,,,,,,,,,,,,,,0,2,2,2,1,,,,,,,,,,,,,,,
,,,,,,,,,example_1,1,2020-01-01_00h00.00.000,FEPT_MR_v8r11_index1_pavlovia,2020.2.10,Win32,60,,0,,0,space,1,1.589,,0,,,,,,Images/Bl_F_Sad_363.jpg,space,Images/mask.jpg,Images/FEPTAFVThumbFaces_claw_INSTRUCT_1.jpg,,,,,,,,,,,,,,,,,,,,,,,,,,,,,,,,,,,,,,,,,,,,,,,,,,,,,,,,,,,,,,,,,,,,,,,,,,,,,,,,,,,,,,,,,0,3,3,3,1,,,,,,,,,,,,,,,
,,,,,,,,,example_1,1,2020-01-01_00h00.00.000,FEPT_MR_v8r11_index1_pavlovia,2020.2.10,Win32,60,,0,,0,l,1,0.688,,0,,,,,,Images/Bl_M_Fea_001c.jpg,l,Images/mask.jpg,Images/FEPTAFVThumbFaces_claw_INSTRUCT_1.jpg,,,,,,,,,,,,,,,,,,,,,,,,,,,,,,,,,,,,,,,,,,,,,,,,,,,,,,,,,,,,,,,,,,,,,,,,,,,,,,,,,,,,,,,,,0,4,4,4,1,,,,,,,,,,,,,,,
,,,,,,,,,example_1,1,2020-01-01_00h00.00.000,FEPT_MR_v8r11_index1_pavlovia,2020.2.10,Win32,60,,0,,0,space,1,0.704,,0,,,,,,Images/As_F_Sad_163.jpg,space,Images/mask.jpg,Images/FEPTAFVThumbFaces_claw_INSTRUCT_1.jpg,,,,,,,,,,,,,,,,,,,,,,,,,,,,,,,,,,,,,,,,,,,,,,,,,,,,,,,,,,,,,,,,,,,,,,,,,,,,,,,,,,,,,,,,,0,5,5,5,1,,,,,,,,,,,,,,,
,,,,,,,,,example_1,1,2020-01-01_00h00.00.000,FEPT_MR_v8r11_index1_pavlovia,2020.2.10,Win32,60,,,,,,,,,,,,,,,,j,Images/mask.jpg,,,0,,0,j,1,1.073,,0,,,,,,Ct,Images/ANML_Ct_09.jpg,Images/FEPTAFVThumbAnimals_claw_INSTRUCT_1.jpg,,,,,,,,,,,,,,,,,,,,,,,,,,,,,,,,,,,,,,,,,,,,,,,,,,,,,,,,,,,,,,,,,,,,,,,,,,,,,0,0,0,0,1,,,,,,,,,,
,,,,,,,,,example_1,1,2020-01-01_00h00.00.000,FEPT_MR_v8r11_index1_pavlovia,2020.2.10,Win32,60,,,,,,,,,,,,,,,,semicolon,Images/mask.jpg,,,0,,0,semicolon,1,0.638,,0,,,,,,Co,Images/ANML_Co_10.jpg,Images/FEPTAFVThumbAnimals_claw_INSTRUCT_1.jpg,,,,,,,,,,,,,,,,,,,,,,,,,,,,,,,,,,,,,,,,,,,,,,,,,,,,,,,,,,,,,,,,,,,,,,,,,,,,,0,1,1,1,1,,,,,,,,,,
,,,,,,,,,example_1,1,2020-01-01_00h00.00.000,FEPT_MR_v8r11_index1_pavlovia,2020.2.10,Win32,60,,,,,,,,,,,,,,,,k,Images/mask.jpg,,,0,,0,k,1,0.737,,0,,,,,,Fi,Images/ANML_Fi_11.jpg,Images/FEPTAFVThumbAnimals_claw_INSTRUCT_1.jpg,,,,,,,,,,,,,,,,,,,,,,,,,,,,,,,,,,,,,,,,,,,,,,,,,,,,,,,,,,,,,,,,,,,,,,,,,,,,,0,2,2,2,1,,,,,,,,,,
,,,,,,,,,example_1,1,2020-01-01_00h00.00.000,FEPT_MR_v8r11_index1_pavlovia,2020.2.10,Win32,60,,,,,,,,,,,,,,,,space,Images/mask.jpg,,,0,,0,space,1,1.422,,0,,,,,,Do,Images/ANML_Do_10.jpg,Images/FEPTAFVThumbAnimals_claw_INSTRUCT_1.jpg,,,,,,,,,,,,,,,,,,,,,,,,,,,,,,,,,,,,,,,,,,,,,,,,,,,,,,,,,,,,,,,,,,,,,,,,,,,,,0,3,3,3,1,,,,,,,,,,
,,,,,,,,,example_1,1,2020-01-01_00h00.00.000,FEPT_MR_v8r11_index1_pavlovia,2020.2.10,Win32,60,,,,,,,,,,,,,,,,l,Images/mask.jpg,,,0,,0,l,1,1.091,,0,,,,,,Bi,Images/ANML_Bi_13.jpg,Images/FEPTAFVThumbAnimals_claw_INSTRUCT_1.jpg,,,,,,,,,,,,,,,,,,,,,,,,,,,,,,,,,,,,,,,,,,,,,,,,,,,,,,,,,,,,,,,,,,,,,,,,,,,,,0,4,4,4,1,,,,,,,,,,
,,,,,,,,,example_1,1,2020-01-01_00h00.00.000,FEPT_MR_v8r11_index1_pavlovia,2020.2.10,Win32,60,,,,,,,,,,,,,,,,semicolon,Images/mask.jpg,,,0,,0,semicolon,1,0.871,,0,,,,,,Co,Images/ANML_Co_21.jpg,Images/FEPTAFVThumbAnimals_claw_INSTRUCT_1.jpg,,,,,,,,,,,,,,,,,,,,,,,,,,,,,,,,,,,,,,,,,,,,,,,,,,,,,,,,,,,,,,,,,,,,,,,,,,,,,0,5,5,5,1,,,,,,,,,,
,,,,,,,,,example_1,1,2020-01-01_00h00.00.000,FEPT_MR_v8r11_index1_pavlovia,2020.2.10,Win32,60,,0,,0,semicolon,1,0.755,,0,,,,,,Images/As_M_Neu_209c.jpg,semicolon,Images/mask.jpg,Images/FEPTAFVThumbFaces_claw_INSTRUCT_1.jpg,,,,,,,,,,,,,,,,,,,,,,,,,,,,,,,,,,,,,,,,,,,,,,,,,,,,,,,,,,,,,,,,,,,,,,,,,,,,,,,,,,,,,,,,,,,,,,,,,,,0,0,0,0,1,,,,,
,,,,,,,,,example_1,1,2020-01-01_00h00.00.000,FEPT_MR_v8r11_index1_pavlovia,2020.2.10,Win32,60,,0,,0,space,1,0.572,,0,,,,,,Images/Wh_M_Sad_213.jpg,space,Images/mask.jpg,Images/FEPTAFVThumbFaces_claw_INSTRUCT_1.jpg,,,,,,,,,,,,,,,,,,,,,,,,,,,,,,,,,,,,,,,,,,,,,,,,,,,,,,,,,,,,,,,,,,,,,,,,,,,,,,,,,,,,,,,,,,,,,,,,,,,0,1,1,1,1,,,,,
,,,,,,,,,example_1,1,2020-01-01_00h00.00.000,FEPT_MR_v8r11_index1_pavlovia,2020.2.10,Win32,60,,0,,0,semicolon,0,2.142,,0,,,,,,Images/Bl_M_Fea_005c.jpg,l,Images/mask.jpg,Images/FEPTAFVThumbFaces_claw_INSTRUCT_1.jpg,,,,,,,,,,,,,,,,,,,,,,,,,,,,,,,,,,,,,,,,,,,,,,,,,,,,,,,,,,,,,,,,,,,,,,,,,,,,,,,,,,,,,,,,,,,,,,,,,,,0,2,2,2,1,,,,,
,,,,,,,,,example_1,1,2020-01-01_00h00.00.000,FEPT_MR_v8r11_index1_pavlovia,2020.2.10,Win32,60,,0,,0,space,1,0.536,,0,,,,,,Images/Wh_F_Sad_263.jpg,space,Images/mask.jpg,Images/FEPTAFVThumbFaces_claw_INSTRUCT_1.jpg,,,,,,,,,,,,,,,,,,,,,,,,,,,,,,,,,,,,,,,,,,,,,,,,,,,,,,,,,,,,,,,,,,,,,,,,,,,,,,,,,,,,,,,,,,,,,,,,,,,0,3,3,3,1,,,,,
,,,,,,,,,example_1,1,2020-01-01_00h00.00.000,FEPT_MR_v8r11_index1_pavlovia,2020.2.10,Win32,60,,0,,0,semicolon,1,0.805,,0,,,,,,Images/Bl_M_Neu_031c.jpg,semicolon,Images/mask.jpg,Images/FEPTAFVThumbFaces_claw_INSTRUCT_1.jpg,,,,,,,,,,,,,,,,,,,,,,,,,,,,,,,,,,,,,,,,,,,,,,,,,,,,,,,,,,,,,,,,,,,,,,,,,,,,,,,,,,,,,,,,,,,,,,,,,,,0,4,4,4,1,,,,,
,,,,,,,,,example_1,1,2020-01-01_00h00.00.000,FEPT_MR_v8r11_index1_pavlovia,2020.2.10,Win32,60,,0,,0,space,1,1.321,,0,,,,,,Images/As_M_Sad_113.jpg,space,Images/mask.jpg,Images/FEPTAFVThumbFaces_claw_INSTRUCT_1.jpg,,,,,,,,,,,,,,,,,,,,,,,,,,,,,,,,,,,,,,,,,,,,,,,,,,,,,,,,,,,,,,,,,,,,,,,,,,,,,,,,,,,,,,,,,,,,,,,,,,,0,5,5,5,1,,,,,
,,,,,,,,,example_1,1,2020-01-01_00h00.00.000,FEPT_MR_v8r11_index1_pavlovia,2020.2.10,Win32,60,,,,,,,,,,,,,,,,space,Images/mask.jpg,,,0,,0,space,1,0.654,,0,,,,,,Do,Images/ANML_Do_11.jpg,Images/FEPTAFVThumbAnimals_claw_INSTRUCT_1.jpg,,,,,,,,,,,,,,,,,,,,,,,,,,,,,,,,,,,,,,,,,,,,,,,,,,,,,,,,,,,,,,,,,,,,,,,,,,,,,,,,,,,,,,,0,0,0,0,1
,,,,,,,,,example_1,1,2020-01-01_00h00.00.000,FEPT_MR_v8r11_index1_pavlovia,2020.2.10,Win32,60,,,,,,,,,,,,,,,,j,Images/mask.jpg,,,0,,0,j,1,1.018,,0,,,,,,Ct,Images/ANML_Ct_10.jpg,Images/FEPTAFVThumbAnimals_claw_INSTRUCT_1.jpg,,,,,,,,,,,,,,,,,,,,,,,,,,,,,,,,,,,,,,,,,,,,,,,,,,,,,,,,,,,,,,,,,,,,,,,,,,,,,,,,,,,,,,,0,1,1,1,1
,,,,,,,,,example_1,1,2020-01-01_00h00.00.000,FEPT_MR_v8r11_index1_pavlovia,2020.2.10,Win32,60,,,,,,,,,,,,,,,,semicolon,Images/mask.jpg,,,0,,0,semicolon,1,1.074,,0,,,,,,Co,Images/ANML_Co_12.jpg,Images/FEPTAFVThumbAnimals_claw_INSTRUCT_1.jpg,,,,,,,,,,,,,,,,,,,,,,,,,,,,,,,,,,,,,,,,,,,,,,,,,,,,,,,,,,,,,,,,,,,,,,,,,,,,,,,,,,,,,,,0,2,2,2,1
,,,,,,,,,example_1,1,2020-01-01_00h00.00.000,FEPT_MR_v8r11_index1_pavlovia,2020.2.10,Win32,60,,,,,,,,,,,,,,,,j,Images/mask.jpg,,,0,,0,j,1,1.136,,0,,,,,,Ct,Images/ANML_Ct_11.jpg,Images/FEPTAFVThumbAnimals_claw_INSTRUCT_1.jpg,,,,,,,,,,,,,,,,,,,,,,,,,,,,,,,,,,,,,,,,,,,,,,,,,,,,,,,,,,,,,,,,,,,,,,,,,,,,,,,,,,,,,,,0,3,3,3,1
,,,,,,,,,example_1,1,2020-01-01_00h00.00.000,FEPT_MR_v8r11_index1_pavlovia,2020.2.10,Win32,60,,,,,,,,,,,,,,,,k,Images/mask.jpg,,,0,,0,k,1,1.22,,0,,,,,,Fi,Images/ANML_Fi_12.jpg,Images/FEPTAFVThumbAnimals_claw_INSTRUCT_1.jpg,,,,,,,,,,,,,,,,,,,,,,,,,,,,,,,,,,,,,,,,,,,,,,,,,,,,,,,,,,,,,,,,,,,,,,,,,,,,,,,,,,,,,,,0,4,4,4,1
,,,,,,,,,example_1,1,2020-01-01_00h00.00.000,FEPT_MR_v8r11_index1_pavlovia,2020.2.10,Win32,60,,,,,,,,,,,,,,,,space,Images/mask.jpg,,,0,,0,space,1,1.073,,0,,,,,,Do,Images/ANML_Do_12.jpg,Images/FEPTAFVThumbAnimals_claw_INSTRUCT_1.jpg,,,,,,,,,,,,,,,,,,,,,,,,,,,,,,,,,,,,,,,,,,,,,,,,,,,,,,,,,,,,,,,,,,,,,,,,,,,,,,,,,,,,,,,0,5,5,5,1