device_detector.started,device_detector.stopped,device_primaryInput,device_screenWidth,device_screenHeight,device_hasTouch,device_hasKeyboard,device_hasMouse,device_userAgent,init_key_input.keys,init_key_input.rt,init_key_input.duration,init_touch_input.x,init_touch_input.y,init_touch_input.leftButton,init_touch_input.midButton,init_touch_input.rightButton,init_touch_input.time,participant,session,date,expName,psychopyVersion,OS,frameRate,inst_select.started,inst_select.stopped,vid_inst_reps,txt_inst_reps,select_video.numClicks,select_video.timesOn,select_video.timesOff,select_text.numClicks,select_text.timesOn,select_text.timesOff,inst1.started,inst1.stopped,inst1_key_resp.keys,inst1_key_resp.rt,inst1_key_resp.duration,inst1_mouse.x,inst1_mouse.y,inst1_mouse.leftButton,inst1_mouse.midButton,inst1_mouse.rightButton,inst1_mouse.time,txt.thisRepN,txt.thisTrialN,txt.thisN,txt.thisIndex,txt.ran,inst2.started,inst2.stopped,inst2_key_resp.keys,inst2_key_resp.rt,inst2_key_resp.duration,inst2_mouse.x,inst2_mouse.y,inst2_mouse.leftButton,inst2_mouse.midButton,inst2_mouse.rightButton,inst2_mouse.time,practice.started,practice.stopped,prac_key_resp.keys,prac_key_resp.corr,prac_key_resp.rt,prac_key_resp.duration,prac_mouse.x,prac_mouse.y,prac_mouse.leftButton,prac_mouse.midButton,prac_mouse.rightButton,prac_mouse.time,prac_mouse.corr,prac_mouse.clicked_name,feedback.started,feedback.stopped,feedback_key.keys,feedback_mouse.x,feedback_mouse.y,feedback_mouse.leftButton,feedback_mouse.midButton,feedback_mouse.rightButton,feedback_mouse.time,prac.thisRepN,prac.thisTrialN,prac.thisN,prac.thisIndex,prac.ran,pword,pcolor,pcolor_fmt,pkey_correct,ptouch_correct,pcondition,inst2_2.started,inst2_2.stopped,inst2_key_resp_2.keys,inst2_key_resp_2.rt,inst2_key_resp_2.duration,inst2_mouse_2.x,inst2_mouse_2.y,inst2_mouse_2.leftButton,inst2_mouse_2.midButton,inst2_mouse_2.rightButton,inst2_mouse_2.time,fixation.started,fixation.stopped,practice_2.started,practice_2.stopped,prac_key_resp_2.keys,prac_key_resp_2.corr,prac_key_resp_2.rt,prac_key_resp_2.duration,prac_mouse_2.x,prac_mouse_2.y,prac_mouse_2.leftButton,prac_mouse_2.midButton,prac_mouse_2.rightButton,prac_mouse_2.time,prac_mouse_2.corr,prac_mouse_2.clicked_name,prac_2.thisRepN,prac_2.thisTrialN,prac_2.thisN,prac_2.thisIndex,prac_2.ran,pduration,inst3.started,inst3.stopped,inst3_key_resp.keys,inst3_key_resp.rt,inst3_key_resp.duration,inst3_mouse.x,inst3_mouse.y,inst3_mouse.leftButton,inst3_mouse.midButton,inst3_mouse.rightButton,inst3_mouse.time,get_ready.started,get_ready.stopped,thisWord,thisColor,thisDuration,trial.started,trial.stopped,trial_key_resp.keys,trial_key_resp.rt,trial_key_resp.duration,trial_mouse.x,trial_mouse.y,trial_mouse.leftButton,trial_mouse.midButton,trial_mouse.rightButton,trial_mouse.time,trial_mouse.clicked_name,trials.thisRepN,trials.thisTrialN,trials.thisN,trials.thisIndex,trials.ran,test,subblock,subblock_type,condition,change_color,emot_color_switch,rest.started,rest.stopped,ready.started,ready.stopped,blocks.thisRepN,blocks.thisTrialN,blocks.thisN,blocks.thisIndex,blocks.ran,block_type,conditions_filepath,block_rows_s,block_rows,end.started,end.stopped
0.001,3.098,keyboard,1300,692,FALSE,TRUE,TRUE,Mozilla/5.0 (Macintosh; Intel Mac OS X 10.15; rv:150.0) Gecko/20100101 Firefox/150.0,space,3.031,,[],[],[],[],[],[],test2,0,2020-01-01_00h00.00.000,stroop_artemis_2025.2.3,2025.2.4,MacIntel,61.88118812,,,,,,,,,,,,,,,,,,,,,,,,,,,,,,,,,,,,,,,,,,,,,,,,,,,,,,,,,,,,,,,,,,,,,,,,,,,,,,,,,,,,,,,,,,,,,,,,,,,,,,,,,,,,,,,,,,,,,,,,,,,,,,,,,,,,,,,,,,,,,,,,,,,,,,,,,,,,,,
,,,,,,,,,,,,,,,,,,test2,0,2020-01-01_00h00.00.000,stroop_artemis_2025.2.3,2025.2.4,MacIntel,61.88118812,3.098,4.866,0,1,0,[],[],1,[4.979000000000001],[4.979000000000001],,,,,,,,,,,,,,,,,,,,,,,,,,,,,,,,,,,,,,,,,,,,,,,,,,,,,,,,,,,,,,,,,,,,,,,,,,,,,,,,,,,,,,,,,,,,,,,,,,,,,,,,,,,,,,,,,,,,,,,,,,,,,,,,,,,,,,,,,,,,,,,,,,,,
,,,,,,,,,,,,,,,,,,test2,0,2020-01-01_00h00.00.000,stroop_artemis_2025.2.3,2025.2.4,MacIntel,61.88118812,,,,,,,,,,,4.868,14.731,space,9.742,,[],[],[],[],[],[],0,0,0,0,1,,,,,,,,,,,,,,,,,,,,,,,,,,,,,,,,,,,,,,,,,,,,,,,,,,,,,,,,,,,,,,,,,,,,,,,,,,,,,,,,,,,,,,,,,,,,,,,,,,,,,,,,,,,,,,,,,,,,,,,,,,,,,,,,,,,,
,,,,,,,,,,,,,,,,,,test2,0,2020-01-01_00h00.00.000,stroop_artemis_2025.2.3,2025.2.4,MacIntel,61.88118812,,,,,,,,,,,,,,,,,,,,,,,,,,,14.732,17.75,space,2.965,,[],[],[],[],[],[],,,,,,,,,,,,,,,,,,,,,,,,,,,,,,,,,,,,,,,,,,,,,,,,,,,,,,,,,,,,,,,,,,,,,,,,,,,,,,,,,,,,,,,,,,,,,,,,,,,,,,,,,,,,,,,,,,,,,,,,,
,,,,,,,,,,,,,,,,,,test2,0,2020-01-01_00h00.00.000,stroop_artemis_2025.2.3,2025.2.4,MacIntel,61.88118812,,,,,,,,,,,,,,,,,,,,,,,,,,,,,,,,,,,,,,17.785,19.864,j,1,2.013,,[],[],[],[],[],[],[],[],19.865,22.87,,[],[],[],[],[],[],0,0,0,0,1,BLUE,blue,blue,j,prac_opt1_shape,CONGRUENT,,,,,,,,,,,,,,,,,,,,,,,,,,,,,,,,,,,,,,,,,,,,,,,,,,,,,,,,,,,,,,,,,,,,,,,,,,,,,,,,,,,,,,,
,,,,,,,,,,,,,,,,,,test2,0,2020-01-01_00h00.00.000,stroop_artemis_2025.2.3,2025.2.4,MacIntel,61.88118812,,,,,,,,,,,,,,,,,,,,,,,,,,,,,,,,,,,,,,22.873,23.779,k,1,0.879,,[],[],[],[],[],[],[],[],23.779,26.772,,[],[],[],[],[],[],0,1,1,1,1,PINK,saddlebrown,brown,k,prac_opt2_shape,INCONGRUENT,,,,,,,,,,,,,,,,,,,,,,,,,,,,,,,,,,,,,,,,,,,,,,,,,,,,,,,,,,,,,,,,,,,,,,,,,,,,,,,,,,,,,,,
,,,,,,,,,,,,,,,,,,test2,0,2020-01-01_00h00.00.000,stroop_artemis_2025.2.3,2025.2.4,MacIntel,61.88118812,,,,,,,,,,,,,,,,,,,,,,,,,,,,,,,,,,,,,,26.775,27.761,l,1,0.959,,[],[],[],[],[],[],[],[],27.762,30.763,,[],[],[],[],[],[],0,2,2,2,1,XXXX,hotpink,pink,l,prac_opt3_shape,NEUTRAL,,,,,,,,,,,,,,,,,,,,,,,,,,,,,,,,,,,,,,,,,,,,,,,,,,,,,,,,,,,,,,,,,,,,,,,,,,,,,,,,,,,,,,,
,,,,,,,,,,,,,,,,,,test2,0,2020-01-01_00h00.00.000,stroop_artemis_2025.2.3,2025.2.4,MacIntel,61.88118812,,,,,,,,,,,,,,,,,,,,,,,,,,,,,,,,,,,,,,30.769,31.755,k,1,0.946,,[],[],[],[],[],[],[],[],31.755,34.753,,[],[],[],[],[],[],0,3,3,3,1,darkness,saddlebrown,brown,k,prac_opt2_shape,,,,,,,,,,,,,,,,,,,,,,,,,,,,,,,,,,,,,,,,,,,,,,,,,,,,,,,,,,,,,,,,,,,,,,,,,,,,,,,,,,,,,,,,
,,,,,,,,,,,,,,,,,,test2,0,2020-01-01_00h00.00.000,stroop_artemis_2025.2.3,2025.2.4,MacIntel,61.88118812,,,,,,,,,,,,,,,,,,,,,,,,,,,,,,,,,,,,,,34.757,35.564,l,1,0.781,,[],[],[],[],[],[],[],[],35.564,38.557,,[],[],[],[],[],[],0,4,4,4,1,lamp,hotpink,pink,l,prac_opt3_shape,,,,,,,,,,,,,,,,,,,,,,,,,,,,,,,,,,,,,,,,,,,,,,,,,,,,,,,,,,,,,,,,,,,,,,,,,,,,,,,,,,,,,,,,
,,,,,,,,,,,,,,,,,,test2,0,2020-01-01_00h00.00.000,stroop_artemis_2025.2.3,2025.2.4,MacIntel,61.88118812,,,,,,,,,,,,,,,,,,,,,,,,,,,,,,,,,,,,,,38.559,39.508,j,1,0.919,,[],[],[],[],[],[],[],[],39.509,42.496,,[],[],[],[],[],[],0,5,5,5,1,clip,blue,blue,j,prac_opt1_shape,,,,,,,,,,,,,,,,,,,,,,,,,,,,,,,,,,,,,,,,,,,,,,,,,,,,,,,,,,,,,,,,,,,,,,,,,,,,,,,,,,,,,,,,
,,,,,,,,,,,,,,,,,,test2,0,2020-01-01_00h00.00.000,stroop_artemis_2025.2.3,2025.2.4,MacIntel,61.88118812,,,,,,,,,,,,,,,,,,,,,,,,,,,,,,,,,,,,,,,,,,,,,,,,,,,,,,,,,,,,,,,,,,,,,,,,42.497,45.217,space,2.659,,[],[],[],[],[],[],,,,,,,,,,,,,,,,,,,,,,,,,,,,,,,,,,,,,,,,,,,,,,,,,,,,,,,,,,,,,,,,,,,,,,,,,,,,
,,,,,,,,,,,,,,,,,,test2,0,2020-01-01_00h00.00.000,stroop_artemis_2025.2.3,2025.2.4,MacIntel,61.88118812,,,,,,,,,,,,,,,,,,,,,,,,,,,,,,,,,,,,,,,,,,,,,,,,,,,,,,,,,,,,,,,,,,,,,,,,,,,,,,,,,,,45.217,47.215,,,,,,,,,,,,,,,,,,,,,,,,,,,,,,,,,,,,,,,,,,,,,,,,,,,,,,,,,,,,,,,,,,,,,,,,,,
,,,,,,,,,,,,,,,,,,test2,0,2020-01-01_00h00.00.000,stroop_artemis_2025.2.3,2025.2.4,MacIntel,61.88118812,,,,,,,,,,,,,,,,,,,,,,,,,,,,,,,,,,,,,,,,,,,,,,,,,,,,,,,,,,,,,,,,,,BLUE,hotpink,pink,l,prac_opt3_shape,INCONGRUENT,,,,,,,,,,,,,,47.245,49.238,l,1,0.692,,[],[],[],[],[],[],[],[],0,0,0,0,1,2,,,,,,,,,,,,,,,,,,,,,,,,,,,,,,,,,,,,,,,,,,,,,,,,,,,,,,
,,,,,,,,,,,,,,,,,,test2,0,2020-01-01_00h00.00.000,stroop_artemis_2025.2.3,2025.2.4,MacIntel,61.88118812,,,,,,,,,,,,,,,,,,,,,,,,,,,,,,,,,,,,,,,,,,,,,,,,,,,,,,,,,,,,,,,,,,XXX,blue,blue,j,prac_opt1_shape,NEUTRAL,,,,,,,,,,,,,,49.24,50.995,j,1,0.781,,[],[],[],[],[],[],[],[],0,1,1,1,1,1.75,,,,,,,,,,,,,,,,,,,,,,,,,,,,,,,,,,,,,,,,,,,,,,,,,,,,,,
,,,,,,,,,,,,,,,,,,test2,0,2020-01-01_00h00.00.000,stroop_artemis_2025.2.3,2025.2.4,MacIntel,61.88118812,,,,,,,,,,,,,,,,,,,,,,,,,,,,,,,,,,,,,,,,,,,,,,,,,,,,,,,,,,,,,,,,,,house,hotpink,pink,l,prac_opt3_shape,,,,,,,,,,,,,,,50.999,52.487,l,1,0.602,,[],[],[],[],[],[],[],[],0,2,2,2,1,1.5,,,,,,,,,,,,,,,,,,,,,,,,,,,,,,,,,,,,,,,,,,,,,,,,,,,,,,
,,,,,,,,,,,,,,,,,,test2,0,2020-01-01_00h00.00.000,stroop_artemis_2025.2.3,2025.2.4,MacIntel,61.88118812,,,,,,,,,,,,,,,,,,,,,,,,,,,,,,,,,,,,,,,,,,,,,,,,,,,,,,,,,,,,,,,,,,darkness,saddlebrown,brown,k,prac_opt2_shape,,,,,,,,,,,,,,,52.489,53.738,k,1,0.697,,[],[],[],[],[],[],[],[],0,3,3,3,1,1.25,,,,,,,,,,,,,,,,,,,,,,,,,,,,,,,,,,,,,,,,,,,,,,,,,,,,,,
,,,,,,,,,,,,,,,,,,test2,0,2020-01-01_00h00.00.000,stroop_artemis_2025.2.3,2025.2.4,MacIntel,61.88118812,,,,,,,,,,,,,,,,,,,,,,,,,,,,,,,,,,,,,,,,,,,,,,,,,,,,,,,,,,,,,,,,,,,,,,,,,,,,,,,,,,,,,,,,,,,,,,,,,,,,,,,,,53.739,57.108,space,3.303,,[],[],[],[],[],[],,,,,,,,,,,,,,,,,,,,,,,,,,,,,,,,,,,,,,,,,,,
,,,,,,,,,,,,,,,,,,test2,0,2020-01-01_00h00.00.000,stroop_artemis_2025.2.3,2025.2.4,MacIntel,61.88118812,,,,,,,,,,,,,,,,,,,,,,,,,,,,,,,,,,,,,,,,,,,,,,,,,,,,,,,,,,,,,,,,,,,,,,,,,,,,,,,,,,,,,,,,,,,,,,,,,,,,,,,,,,,,,,,,,,,,57.108,58.308,,,,,,,,,,,,,,,,,,,,,,,,,,,,,,,,,,,,,,,,,
,,,,,,,,,,,,,,,,,,test2,0,2020-01-01_00h00.00.000,stroop_artemis_2025.2.3,2025.2.4,MacIntel,61.88118812,,,,,,,,,,,,,,,,,,,,,,,,,,,,,,,,,,,,,,,,,,,,,,,,,,,,,,,,,,,,,,,,,,,,,,,,,,,,,,,,,,,58.308,60.304,,,,,,,,,,,,,,,,,,,,,,,,,,,,,,,,,,,,,,,,,,,,,,,,,,,,,,,,,,,,,,,,,,,,,,,,,,
,,,,,,,,,,,,,,,,,,test2,0,2020-01-01_00h00.00.000,stroop_artemis_2025.2.3,2025.2.4,MacIntel,61.88118812,,,,,,,,,,,,,,,,,,,,,,,,,,,,,,,,,,,,,,,,,,,,,,,,,,,,,,,,,,,,,,,,,,,,,,,,,,,,,,,,,,,,,,,,,,,,,,,,,,,,,,,,,,,,,,,,,,,,,,XXX,blue,1.167,60.369,61.647,"[""j""]",[0.7040000000000077],[null],[],[],[],[],[],[],[],0,0,0,0,1,classic,44,NI,neutral,,,,,,,,,,,,,,,,,
,,,,,,,,,,,,,,,,,,test2,0,2020-01-01_00h00.00.000,stroop_artemis_2025.2.3,2025.2.4,MacIntel,61.88118812,,,,,,,,,,,,,,,,,,,,,,,,,,,,,,,,,,,,,,,,,,,,,,,,,,,,,,,,,,,,,,,,,,,,,,,,,,,,,,,,,,,,,,,,,,,,,,,,,,,,,,,,,,,,,,,,,,,,,,PINK,blue,1.1,61.65,62.858,"[""j""]",[0.6099999999999994],[null],[],[],[],[],[],[],[],0,1,1,1,1,classic,44,NI,incongruent,,,,,,,,,,,,,,,,,
,,,,,,,,,,,,,,,,,,test2,0,2020-01-01_00h00.00.000,stroop_artemis_2025.2.3,2025.2.4,MacIntel,61.88118812,,,,,,,,,,,,,,,,,,,,,,,,,,,,,,,,,,,,,,,,,,,,,,,,,,,,,,,,,,,,,,,,,,,,,,,,,,,,,,,,,,,,,,,,,,,,,,,,,,,,,,,,,,,,,,,,,,,,,,BROWN,saddlebrown,1.05,62.859,64.028,"[""k""]",[0.6189999999999998],[null],[],[],[],[],[],[],[],0,2,2,2,1,classic,45,C6I,congruent,,,,,,,,,,,,,,,,,
,,,,,,,,,,,,,,,,,,test2,0,2020-01-01_00h00.00.000,stroop_artemis_2025.2.3,2025.2.4,MacIntel,61.88118812,,,,,,,,,,,,,,,,,,,,,,,,,,,,,,,,,,,,,,,,,,,,,,,,,,,,,,,,,,,,,,,,,,,,,,,,,,,,,,,,,,,,,,,,,,,,,,,,,,,,,,,,,,,,,,,,,,,,,,PINK,hotpink,1.034,64.031,65.176,"[""l""]",[0.4650000000000034],[null],[],[],[],[],[],[],[],0,3,3,3,1,classic,45,C6I,congruent,,,,,,,,,,,,,,,,,
,,,,,,,,,,,,,,,,,,test2,0,2020-01-01_00h00.00.000,stroop_artemis_2025.2.3,2025.2.4,MacIntel,61.88118812,,,,,,,,,,,,,,,,,,,,,,,,,,,,,,,,,,,,,,,,,,,,,,,,,,,,,,,,,,,,,,,,,,,,,,,,,,,,,,,,,,,,,,,,,,,,,,,,,,,,,,,,,,,,,,,,,,,,,,BLUE,blue,1.134,65.18,66.413,"[""j""]",[0.45700000000000784],[null],[],[],[],[],[],[],[],0,4,4,4,1,classic,45,C6I,congruent,,,,,,,,,,,,,,,,,
,,,,,,,,,,,,,,,,,,test2,0,2020-01-01_00h00.00.000,stroop_artemis_2025.2.3,2025.2.4,MacIntel,61.88118812,,,,,,,,,,,,,,,,,,,,,,,,,,,,,,,,,,,,,,,,,,,,,,,,,,,,,,,,,,,,,,,,,,,,,,,,,,,,,,,,,,,,,,,,,,,,,,,,,,,,,,,,,,,,,,,,,,,,,,BROWN,saddlebrown,1.2,66.416,67.719,"[""k""]",[0.6009999999999991],[null],[],[],[],[],[],[],[],0,5,5,5,1,classic,45,C6I,congruent,,,,,,,,,,,,,,,,,
,,,,,,,,,,,,,,,,,,test2,0,2020-01-01_00h00.00.000,stroop_artemis_2025.2.3,2025.2.4,MacIntel,61.88118812,,,,,,,,,,,,,,,,,,,,,,,,,,,,,,,,,,,,,,,,,,,,,,,,,,,,,,,,,,,,,,,,,,,,,,,,,,,,,,,,,,,,,,,,,,,,,,,,,,,,,,,,,,,,,,,,,,,,,,BLUE,blue,1.117,67.722,68.96,"[""j""]",[0.5210000000000008],[null],[],[],[],[],[],[],[],0,6,6,6,1,classic,45,C6I,congruent,,,,,,,,,,,,,,,,,
,,,,,,,,,,,,,,,,,,test2,0,2020-01-01_00h00.00.000,stroop_artemis_2025.2.3,2025.2.4,MacIntel,61.88118812,,,,,,,,,,,,,,,,,,,,,,,,,,,,,,,,,,,,,,,,,,,,,,,,,,,,,,,,,,,,,,,,,,,,,,,,,,,,,,,,,,,,,,,,,,,,,,,,,,,,,,,,,,,,,,,,,,,,,,PINK,hotpink,1.084,68.962,70.154,"[""l""]",[0.41500000000000625],[null],[],[],[],[],[],[],[],0,7,7,7,1,classic,45,C6I,congruent,,,,,,,,,,,,,,,,,
,,,,,,,,,,,,,,,,,,test2,0,2020-01-01_00h00.00.000,stroop_artemis_2025.2.3,2025.2.4,MacIntel,61.88118812,,,,,,,,,,,,,,,,,,,,,,,,,,,,,,,,,,,,,,,,,,,,,,,,,,,,,,,,,,,,,,,,,,,,,,,,,,,,,,,,,,,,,,,,,,,,,,,,,,,,,,,,,,,,,,,,,,,,,,BROWN,hotpink,1,70.156,71.266,"[""k""]",[0.8759999999999906],[null],[],[],[],[],[],[],[],0,8,8,8,1,classic,45,C6I,incongruent,,,,,,,,,,,,,,,,,
,,,,,,,,,,,,,,,,,,test2,0,2020-01-01_00h00.00.000,stroop_artemis_2025.2.3,2025.2.4,MacIntel,61.88118812,,,,,,,,,,,,,,,,,,,,,,,,,,,,,,,,,,,,,,,,,,,,,,,,,,,,,,,,,,,,,,,,,,,,,,,,,,,,,,,,,,,,,,,,,,,,,,,,,,,,,,,,,,,,,,,,,,,,,,XXXXX,saddlebrown,1.184,71.272,72.565,"[""k""]",[0.8230000000000075],[null],[],[],[],[],[],[],[],0,9,9,9,1,classic,46,N3I,neutral,,,,,,,,,,,,,,,,,
,,,,,,,,,,,,,,,,,,test2,0,2020-01-01_00h00.00.000,stroop_artemis_2025.2.3,2025.2.4,MacIntel,61.88118812,,,,,,,,,,,,,,,,,,,,,,,,,,,,,,,,,,,,,,,,,,,,,,,,,,,,,,,,,,,,,,,,,,,,,,,,,,,,,,,,,,,,,,,,,,,,,,,,,,,,,,,,,,,,,,,,,,,,,,XXXX,hotpink,1.017,72.572,73.7,"[""l""]",[0.7289999999999992],[null],[],[],[],[],[],[],[],0,10,10,10,1,classic,46,N3I,neutral,,,,,,,,,,,,,,,,,
,,,,,,,,,,,,,,,,,,test2,0,2020-01-01_00h00.00.000,stroop_artemis_2025.2.3,2025.2.4,MacIntel,61.88118812,,,,,,,,,,,,,,,,,,,,,,,,,,,,,,,,,,,,,,,,,,,,,,,,,,,,,,,,,,,,,,,,,,,,,,,,,,,,,,,,,,,,,,,,,,,,,,,,,,,,,,,,,,,,,,,,,,,,,,XXXXX,saddlebrown,1.15,73.702,74.965,"[""k""]",[0.6600000000000108],[null],[],[],[],[],[],[],[],0,11,11,11,1,classic,46,N3I,neutral,,,,,,,,,,,,,,,,,
,,,,,,,,,,,,,,,,,,test2,0,2020-01-01_00h00.00.000,stroop_artemis_2025.2.3,2025.2.4,MacIntel,61.88118812,,,,,,,,,,,,,,,,,,,,,,,,,,,,,,,,,,,,,,,,,,,,,,,,,,,,,,,,,,,,,,,,,,,,,,,,,,,,,,,,,,,,,,,,,,,,,,,,,,,,,,,,,,,,,,,,,,,,,,PINK,saddlebrown,1.067,74.967,76.138,"[""k""]",[0.6129999999999995],[null],[],[],[],[],[],[],[],0,12,12,12,1,classic,46,N3I,incongruent,,,,,,,,,,,,,,,,,
,,,,,,,,,,,,,,,,,,test2,0,2020-01-01_00h00.00.000,stroop_artemis_2025.2.3,2025.2.4,MacIntel,61.88118812,,,,,,,,,,,,,,,,,,,,,,,,,,,,,,,,,,,,,,,,,,,,,,,,,,,,,,,,,,,,,,,,,,,,,,,,,,,,,,,,,,,,,,,,,,,,,,,,,,,,,,,,,,,,,,,,,,,,,,PINK,hotpink,1.05,76.139,77.295,"[""l""]",[0.6020000000000039],[null],[],[],[],[],[],[],[],0,13,13,13,1,classic,47,C3I,congruent,,,,,,,,,,,,,,,,,
,,,,,,,,,,,,,,,,,,test2,0,2020-01-01_00h00.00.000,stroop_artemis_2025.2.3,2025.2.4,MacIntel,61.88118812,,,,,,,,,,,,,,,,,,,,,,,,,,,,,,,,,,,,,,,,,,,,,,,,,,,,,,,,,,,,,,,,,,,,,,,,,,,,,,,,,,,,,,,,,,,,,,,,,,,,,,,,,,,,,,,,,,,,,,BLUE,blue,1.184,77.299,78.585,"[""j""]",[0.6989999999999981],[null],[],[],[],[],[],[],[],0,14,14,14,1,classic,47,C3I,congruent,,,,,,,,,,,,,,,,,
,,,,,,,,,,,,,,,,,,test2,0,2020-01-01_00h00.00.000,stroop_artemis_2025.2.3,2025.2.4,MacIntel,61.88118812,,,,,,,,,,,,,,,,,,,,,,,,,,,,,,,,,,,,,,,,,,,,,,,,,,,,,,,,,,,,,,,,,,,,,,,,,,,,,,,,,,,,,,,,,,,,,,,,,,,,,,,,,,,,,,,,,,,,,,BROWN,saddlebrown,1.117,78.588,79.827,"[""k""]",[0.6430000000000007],[null],[],[],[],[],[],[],[],0,15,15,15,1,classic,47,C3I,congruent,,,,,,,,,,,,,,,,,
,,,,,,,,,,,,,,,,,,test2,0,2020-01-01_00h00.00.000,stroop_artemis_2025.2.3,2025.2.4,MacIntel,61.88118812,,,,,,,,,,,,,,,,,,,,,,,,,,,,,,,,,,,,,,,,,,,,,,,,,,,,,,,,,,,,,,,,,,,,,,,,,,,,,,,,,,,,,,,,,,,,,,,,,,,,,,,,,,,,,,,,,,,,,,BROWN,blue,1.084,79.828,81.024,"[""j""]",[0.8580000000000041],[null],[],[],[],[],[],[],[],0,16,16,16,1,classic,47,C3I,incongruent,,,,,,,,,,,,,,,,,
,,,,,,,,,,,,,,,,,,test2,0,2020-01-01_00h00.00.000,stroop_artemis_2025.2.3,2025.2.4,MacIntel,61.88118812,,,,,,,,,,,,,,,,,,,,,,,,,,,,,,,,,,,,,,,,,,,,,,,,,,,,,,,,,,,,,,,,,,,,,,,,,,,,,,,,,,,,,,,,,,,,,,,,,,,,,,,,,,,,,,,,,,,,,,BLUE,blue,1.134,81.026,82.264,"[""j""]",[0.6049999999999898],[null],[],[],[],[],[],[],[],0,17,17,17,1,classic,48,C7I,congruent,,,,,,,,,,,,,,,,,
,,,,,,,,,,,,,,,,,,test2,0,2020-01-01_00h00.00.000,stroop_artemis_2025.2.3,2025.2.4,MacIntel,61.88118812,,,,,,,,,,,,,,,,,,,,,,,,,,,,,,,,,,,,,,,,,,,,,,,,,,,,,,,,,,,,,,,,,,,,,,,,,,,,,,,,,,,,,,,,,,,,,,,,,,,,,,,,,,,,,,,,,,,,,,BROWN,saddlebrown,1.2,82.268,83.58,"[""k""]",[0.7340000000000089],[null],[],[],[],[],[],[],[],0,18,18,18,1,classic,48,C7I,congruent,,,,,,,,,,,,,,,,,
,,,,,,,,,,,,,,,,,,test2,0,2020-01-01_00h00.00.000,stroop_artemis_2025.2.3,2025.2.4,MacIntel,61.88118812,,,,,,,,,,,,,,,,,,,,,,,,,,,,,,,,,,,,,,,,,,,,,,,,,,,,,,,,,,,,,,,,,,,,,,,,,,,,,,,,,,,,,,,,,,,,,,,,,,,,,,,,,,,,,,,,,,,,,,PINK,hotpink,1.167,83.582,84.855,"[""l""]",[0.4549999999999983],[null],[],[],[],[],[],[],[],0,19,19,19,1,classic,48,C7I,congruent,,,,,,,,,,,,,,,,,
,,,,,,,,,,,,,,,,,,test2,0,2020-01-01_00h00.00.000,stroop_artemis_2025.2.3,2025.2.4,MacIntel,61.88118812,,,,,,,,,,,,,,,,,,,,,,,,,,,,,,,,,,,,,,,,,,,,,,,,,,,,,,,,,,,,,,,,,,,,,,,,,,,,,,,,,,,,,,,,,,,,,,,,,,,,,,,,,,,,,,,,,,,,,,BLUE,blue,1.067,84.858,86.035,"[""j""]",[0.9650000000000034],[null],[],[],[],[],[],[],[],0,20,20,20,1,classic,48,C7I,congruent,,,,,,,,,,,,,,,,,
,,,,,,,,,,,,,,,,,,test2,0,2020-01-01_00h00.00.000,stroop_artemis_2025.2.3,2025.2.4,MacIntel,61.88118812,,,,,,,,,,,,,,,,,,,,,,,,,,,,,,,,,,,,,,,,,,,,,,,,,,,,,,,,,,,,,,,,,,,,,,,,,,,,,,,,,,,,,,,,,,,,,,,,,,,,,,,,,,,,,,,,,,,,,,PINK,hotpink,1.1,86.038,87.247,"[""l""]",[0.6269999999999953],[null],[],[],[],[],[],[],[],0,21,21,21,1,classic,48,C7I,congruent,,,,,,,,,,,,,,,,,
,,,,,,,,,,,,,,,,,,test2,0,2020-01-01_00h00.00.000,stroop_artemis_2025.2.3,2025.2.4,MacIntel,61.88118812,,,,,,,,,,,,,,,,,,,,,,,,,,,,,,,,,,,,,,,,,,,,,,,,,,,,,,,,,,,,,,,,,,,,,,,,,,,,,,,,,,,,,,,,,,,,,,,,,,,,,,,,,,,,,,,,,,,,,,BROWN,saddlebrown,1,87.249,88.36,"[""k""]",[0.5949999999999989],[null],[],[],[],[],[],[],[],0,22,22,22,1,classic,48,C7I,congruent,,,,,,,,,,,,,,,,,
,,,,,,,,,,,,,,,,,,test2,0,2020-01-01_00h00.00.000,stroop_artemis_2025.2.3,2025.2.4,MacIntel,61.88118812,,,,,,,,,,,,,,,,,,,,,,,,,,,,,,,,,,,,,,,,,,,,,,,,,,,,,,,,,,,,,,,,,,,,,,,,,,,,,,,,,,,,,,,,,,,,,,,,,,,,,,,,,,,,,,,,,,,,,,PINK,hotpink,1.15,88.362,89.628,"[""l""]",[0.6300000000000097],[null],[],[],[],[],[],[],[],0,23,23,23,1,classic,48,C7I,congruent,,,,,,,,,,,,,,,,,
,,,,,,,,,,,,,,,,,,test2,0,2020-01-01_00h00.00.000,stroop_artemis_2025.2.3,2025.2.4,MacIntel,61.88118812,,,,,,,,,,,,,,,,,,,,,,,,,,,,,,,,,,,,,,,,,,,,,,,,,,,,,,,,,,,,,,,,,,,,,,,,,,,,,,,,,,,,,,,,,,,,,,,,,,,,,,,,,,,,,,,,,,,,,,BLUE,saddlebrown,1.034,89.634,90.786,"[""k""]",[0.8909999999999911],[null],[],[],[],[],[],[],[],0,24,24,24,1,classic,48,C7I,incongruent,,,,,,,,,,,,,,,,,
,,,,,,,,,,,,,,,,,,test2,0,2020-01-01_00h00.00.000,stroop_artemis_2025.2.3,2025.2.4,MacIntel,61.88118812,,,,,,,,,,,,,,,,,,,,,,,,,,,,,,,,,,,,,,,,,,,,,,,,,,,,,,,,,,,,,,,,,,,,,,,,,,,,,,,,,,,,,,,,,,,,,,,,,,,,,,,,,,,,,,,,,,,,,,XXXX,hotpink,1.017,90.787,91.913,"[""l""]",[0.6680000000000064],[null],[],[],[],[],[],[],[],0,25,25,25,1,classic,49,NI,neutral,,,,,,,,,,,,,,,,,
,,,,,,,,,,,,,,,,,,test2,0,2020-01-01_00h00.00.000,stroop_artemis_2025.2.3,2025.2.4,MacIntel,61.88118812,,,,,,,,,,,,,,,,,,,,,,,,,,,,,,,,,,,,,,,,,,,,,,,,,,,,,,,,,,,,,,,,,,,,,,,,,,,,,,,,,,,,,,,,,,,,,,,,,,,,,,,,,,,,,,,,,,,,,,BLUE,hotpink,1.017,91.915,93.044,,,,[],[],[],[],[],[],[],0,26,26,26,1,classic,49,NI,incongruent,,,,,,,,,,,,,,,,,
,,,,,,,,,,,,,,,,,,test2,0,2020-01-01_00h00.00.000,stroop_artemis_2025.2.3,2025.2.4,MacIntel,61.88118812,,,,,,,,,,,,,,,,,,,,,,,,,,,,,,,,,,,,,,,,,,,,,,,,,,,,,,,,,,,,,,,,,,,,,,,,,,,,,,,,,,,,,,,,,,,,,,,,,,,,,,,,,,,,,,,,,,,,,,BROWN,saddlebrown,1.134,93.046,94.3,"[""k"",""k""]","[0.10999999999999943,0.9240000000000066]","[null,null]",[],[],[],[],[],[],[],0,27,27,27,1,classic,50,C2I,congruent,,,,,,,,,,,,,,,,,
,,,,,,,,,,,,,,,,,,test2,0,2020-01-01_00h00.00.000,stroop_artemis_2025.2.3,2025.2.4,MacIntel,61.88118812,,,,,,,,,,,,,,,,,,,,,,,,,,,,,,,,,,,,,,,,,,,,,,,,,,,,,,,,,,,,,,,,,,,,,,,,,,,,,,,,,,,,,,,,,,,,,,,,,,,,,,,,,,,,,,,,,,,,,,BLUE,blue,1.117,94.315,95.534,"[""j""]",[0.5690000000000026],[null],[],[],[],[],[],[],[],0,28,28,28,1,classic,50,C2I,congruent,,,,,,,,,,,,,,,,,
,,,,,,,,,,,,,,,,,,test2,0,2020-01-01_00h00.00.000,stroop_artemis_2025.2.3,2025.2.4,MacIntel,61.88118812,,,,,,,,,,,,,,,,,,,,,,,,,,,,,,,,,,,,,,,,,,,,,,,,,,,,,,,,,,,,,,,,,,,,,,,,,,,,,,,,,,,,,,,,,,,,,,,,,,,,,,,,,,,,,,,,,,,,,,BLUE,hotpink,1.067,95.535,96.711,"[""l""]",[0.46300000000000807],[null],[],[],[],[],[],[],[],0,29,29,29,1,classic,50,C2I,incongruent,,,,,,,,,,,,,,,,,
,,,,,,,,,,,,,,,,,,test2,0,2020-01-01_00h00.00.000,stroop_artemis_2025.2.3,2025.2.4,MacIntel,61.88118812,,,,,,,,,,,,,,,,,,,,,,,,,,,,,,,,,,,,,,,,,,,,,,,,,,,,,,,,,,,,,,,,,,,,,,,,,,,,,,,,,,,,,,,,,,,,,,,,,,,,,,,,,,,,,,,,,,,,,,BROWN,saddlebrown,1.05,96.718,97.874,"[""k""]",[0.5520000000000067],[null],[],[],[],[],[],[],[],0,30,30,30,1,classic,51,CI,congruent,,,,,,,,,,,,,,,,,
,,,,,,,,,,,,,,,,,,test2,0,2020-01-01_00h00.00.000,stroop_artemis_2025.2.3,2025.2.4,MacIntel,61.88118812,,,,,,,,,,,,,,,,,,,,,,,,,,,,,,,,,,,,,,,,,,,,,,,,,,,,,,,,,,,,,,,,,,,,,,,,,,,,,,,,,,,,,,,,,,,,,,,,,,,,,,,,,,,,,,,,,,,,,,PINK,blue,1.1,97.877,99.094,"[""j""]",[0.9129999999999967],[null],[],[],[],[],[],[],[],0,31,31,31,1,classic,51,CI,incongruent,,,,,,,,,,,,,,,,,
,,,,,,,,,,,,,,,,,,test2,0,2020-01-01_00h00.00.000,stroop_artemis_2025.2.3,2025.2.4,MacIntel,61.88118812,,,,,,,,,,,,,,,,,,,,,,,,,,,,,,,,,,,,,,,,,,,,,,,,,,,,,,,,,,,,,,,,,,,,,,,,,,,,,,,,,,,,,,,,,,,,,,,,,,,,,,,,,,,,,,,,,,,,,,BLUE,blue,1.034,99.099,100.239,"[""j""]",[0.5440000000000111],[null],[],[],[],[],[],[],[],0,32,32,32,1,classic,52,C3I,congruent,,,,,,,,,,,,,,,,,
,,,,,,,,,,,,,,,,,,test2,0,2020-01-01_00h00.00.000,stroop_artemis_2025.2.3,2025.2.4,MacIntel,61.88118812,,,,,,,,,,,,,,,,,,,,,,,,,,,,,,,,,,,,,,,,,,,,,,,,,,,,,,,,,,,,,,,,,,,,,,,,,,,,,,,,,,,,,,,,,,,,,,,,,,,,,,,,,,,,,,,,,,,,,,PINK,hotpink,1,100.241,101.352,"[""l""]",[0.5600000000000023],[null],[],[],[],[],[],[],[],0,33,33,33,1,classic,52,C3I,congruent,,,,,,,,,,,,,,,,,
,,,,,,,,,,,,,,,,,,test2,0,2020-01-01_00h00.00.000,stroop_artemis_2025.2.3,2025.2.4,MacIntel,61.88118812,,,,,,,,,,,,,,,,,,,,,,,,,,,,,,,,,,,,,,,,,,,,,,,,,,,,,,,,,,,,,,,,,,,,,,,,,,,,,,,,,,,,,,,,,,,,,,,,,,,,,,,,,,,,,,,,,,,,,,BROWN,saddlebrown,1.2,101.357,102.679,"[""k""]",[1.0450000000000017],[null],[],[],[],[],[],[],[],0,34,34,34,1,classic,52,C3I,congruent,,,,,,,,,,,,,,,,,
,,,,,,,,,,,,,,,,,,test2,0,2020-01-01_00h00.00.000,stroop_artemis_2025.2.3,2025.2.4,MacIntel,61.88118812,,,,,,,,,,,,,,,,,,,,,,,,,,,,,,,,,,,,,,,,,,,,,,,,,,,,,,,,,,,,,,,,,,,,,,,,,,,,,,,,,,,,,,,,,,,,,,,,,,,,,,,,,,,,,,,,,,,,,,BROWN,blue,1.084,102.68,103.863,"[""j""]",[0.8700000000000045],[null],[],[],[],[],[],[],[],0,35,35,35,1,classic,52,C3I,incongruent,,,,,,,,,,,,,,,,,
,,,,,,,,,,,,,,,,,,test2,0,2020-01-01_00h00.00.000,stroop_artemis_2025.2.3,2025.2.4,MacIntel,61.88118812,,,,,,,,,,,,,,,,,,,,,,,,,,,,,,,,,,,,,,,,,,,,,,,,,,,,,,,,,,,,,,,,,,,,,,,,,,,,,,,,,,,,,,,,,,,,,,,,,,,,,,,,,,,,,,,,,,,,,,BLUE,blue,1.184,103.866,105.153,"[""j""]",[0.5799999999999983],[null],[],[],[],[],[],[],[],0,36,36,36,1,classic,53,C2I,congruent,,,,,,,,,,,,,,,,,
,,,,,,,,,,,,,,,,,,test2,0,2020-01-01_00h00.00.000,stroop_artemis_2025.2.3,2025.2.4,MacIntel,61.88118812,,,,,,,,,,,,,,,,,,,,,,,,,,,,,,,,,,,,,,,,,,,,,,,,,,,,,,,,,,,,,,,,,,,,,,,,,,,,,,,,,,,,,,,,,,,,,,,,,,,,,,,,,,,,,,,,,,,,,,PINK,hotpink,1.15,105.158,106.426,"[""l""]",[0.7530000000000001],[null],[],[],[],[],[],[],[],0,37,37,37,1,classic,53,C2I,congruent,,,,,,,,,,,,,,,,,
,,,,,,,,,,,,,,,,,,test2,0,2020-01-01_00h00.00.000,stroop_artemis_2025.2.3,2025.2.4,MacIntel,61.88118812,,,,,,,,,,,,,,,,,,,,,,,,,,,,,,,,,,,,,,,,,,,,,,,,,,,,,,,,,,,,,,,,,,,,,,,,,,,,,,,,,,,,,,,,,,,,,,,,,,,,,,,,,,,,,,,,,,,,,,BLUE,saddlebrown,1.167,106.429,107.7,"[""k""]",[0.5609999999999928],[null],[],[],[],[],[],[],[],0,38,38,38,1,classic,53,C2I,incongruent,,,,,,,,,,,,,,,,,
,,,,,,,,,,,,,,,,,,test2,0,2020-01-01_00h00.00.000,stroop_artemis_2025.2.3,2025.2.4,MacIntel,61.88118812,,,,,,,,,,,,,,,,,,,,,,,,,,,,,,,,,,,,,,,,,,,,,,,,,,,,,,,,,,,,,,,,,,,,,,,,,,,,,,,,,,,,,,,,,,,,,,,,,,,,,,,,,,,,,,,,,,,,,,PINK,saddlebrown,1.084,107.702,108.893,"[""k""]",[0.5470000000000113],[null],[],[],[],[],[],[],[],0,39,39,39,1,classic,54,I2,incongruent,,,,,,,,,,,,,,,,,
,,,,,,,,,,,,,,,,,,test2,0,2020-01-01_00h00.00.000,stroop_artemis_2025.2.3,2025.2.4,MacIntel,61.88118812,,,,,,,,,,,,,,,,,,,,,,,,,,,,,,,,,,,,,,,,,,,,,,,,,,,,,,,,,,,,,,,,,,,,,,,,,,,,,,,,,,,,,,,,,,,,,,,,,,,,,,,,,,,,,,,,,,,,,,BLUE,blue,1.017,108.896,110.026,"[""j""]",[0.5529999999999973],[null],[],[],[],[],[],[],[],0,40,40,40,1,classic,55,C4I,congruent,,,,,,,,,,,,,,,,,
,,,,,,,,,,,,,,,,,,test2,0,2020-01-01_00h00.00.000,stroop_artemis_2025.2.3,2025.2.4,MacIntel,61.88118812,,,,,,,,,,,,,,,,,,,,,,,,,,,,,,,,,,,,,,,,,,,,,,,,,,,,,,,,,,,,,,,,,,,,,,,,,,,,,,,,,,,,,,,,,,,,,,,,,,,,,,,,,,,,,,,,,,,,,,PINK,hotpink,1.034,110.028,111.166,"[""l""]",[0.5440000000000111],[null],[],[],[],[],[],[],[],0,41,41,41,1,classic,55,C4I,congruent,,,,,,,,,,,,,,,,,
,,,,,,,,,,,,,,,,,,test2,0,2020-01-01_00h00.00.000,stroop_artemis_2025.2.3,2025.2.4,MacIntel,61.88118812,,,,,,,,,,,,,,,,,,,,,,,,,,,,,,,,,,,,,,,,,,,,,,,,,,,,,,,,,,,,,,,,,,,,,,,,,,,,,,,,,,,,,,,,,,,,,,,,,,,,,,,,,,,,,,,,,,,,,,BROWN,saddlebrown,1.184,111.172,112.462,"[""k""]",[0.8430000000000035],[null],[],[],[],[],[],[],[],0,42,42,42,1,classic,55,C4I,congruent,,,,,,,,,,,,,,,,,
,,,,,,,,,,,,,,,,,,test2,0,2020-01-01_00h00.00.000,stroop_artemis_2025.2.3,2025.2.4,MacIntel,61.88118812,,,,,,,,,,,,,,,,,,,,,,,,,,,,,,,,,,,,,,,,,,,,,,,,,,,,,,,,,,,,,,,,,,,,,,,,,,,,,,,,,,,,,,,,,,,,,,,,,,,,,,,,,,,,,,,,,,,,,,PINK,hotpink,1.117,112.466,113.695,"[""l""]",[0.6310000000000002],[null],[],[],[],[],[],[],[],0,43,43,43,1,classic,55,C4I,congruent,,,,,,,,,,,,,,,,,
,,,,,,,,,,,,,,,,,,test2,0,2020-01-01_00h00.00.000,stroop_artemis_2025.2.3,2025.2.4,MacIntel,61.88118812,,,,,,,,,,,,,,,,,,,,,,,,,,,,,,,,,,,,,,,,,,,,,,,,,,,,,,,,,,,,,,,,,,,,,,,,,,,,,,,,,,,,,,,,,,,,,,,,,,,,,,,,,,,,,,,,,,,,,,BROWN,hotpink,1,113.696,114.803,"[""l""]",[0.561000000000007],[null],[],[],[],[],[],[],[],0,44,44,44,1,classic,55,C4I,incongruent,,,,,,,,,,,,,,,,,
,,,,,,,,,,,,,,,,,,test2,0,2020-01-01_00h00.00.000,stroop_artemis_2025.2.3,2025.2.4,MacIntel,61.88118812,,,,,,,,,,,,,,,,,,,,,,,,,,,,,,,,,,,,,,,,,,,,,,,,,,,,,,,,,,,,,,,,,,,,,,,,,,,,,,,,,,,,,,,,,,,,,,,,,,,,,,,,,,,,,,,,,,,,,,BLUE,blue,1.167,114.804,116.074,"[""j""]",[0.5649999999999977],[null],[],[],[],[],[],[],[],0,45,45,45,1,classic,56,C2I,congruent,,,,,,,,,,,,,,,,,
,,,,,,,,,,,,,,,,,,test2,0,2020-01-01_00h00.00.000,stroop_artemis_2025.2.3,2025.2.4,MacIntel,61.88118812,,,,,,,,,,,,,,,,,,,,,,,,,,,,,,,,,,,,,,,,,,,,,,,,,,,,,,,,,,,,,,,,,,,,,,,,,,,,,,,,,,,,,,,,,,,,,,,,,,,,,,,,,,,,,,,,,,,,,,BROWN,saddlebrown,1.05,116.076,117.238,"[""k""]",[0.6039999999999992],[null],[],[],[],[],[],[],[],0,46,46,46,1,classic,56,C2I,congruent,,,,,,,,,,,,,,,,,
,,,,,,,,,,,,,,,,,,test2,0,2020-01-01_00h00.00.000,stroop_artemis_2025.2.3,2025.2.4,MacIntel,61.88118812,,,,,,,,,,,,,,,,,,,,,,,,,,,,,,,,,,,,,,,,,,,,,,,,,,,,,,,,,,,,,,,,,,,,,,,,,,,,,,,,,,,,,,,,,,,,,,,,,,,,,,,,,,,,,,,,,,,,,,PINK,saddlebrown,1.15,117.246,118.508,"[""k""]",[0.6979999999999933],[null],[],[],[],[],[],[],[],0,47,47,47,1,classic,56,C2I,incongruent,,,,,,,,,,,,,,,,,
,,,,,,,,,,,,,,,,,,test2,0,2020-01-01_00h00.00.000,stroop_artemis_2025.2.3,2025.2.4,MacIntel,61.88118812,,,,,,,,,,,,,,,,,,,,,,,,,,,,,,,,,,,,,,,,,,,,,,,,,,,,,,,,,,,,,,,,,,,,,,,,,,,,,,,,,,,,,,,,,,,,,,,,,,,,,,,,,,,,,,,,,,,,,,XXX,blue,1.2,118.511,119.827,"[""j""]",[0.9819999999999993],[null],[],[],[],[],[],[],[],0,48,48,48,1,classic,57,NI,neutral,,,,,,,,,,,,,,,,,
,,,,,,,,,,,,,,,,,,test2,0,2020-01-01_00h00.00.000,stroop_artemis_2025.2.3,2025.2.4,MacIntel,61.88118812,,,,,,,,,,,,,,,,,,,,,,,,,,,,,,,,,,,,,,,,,,,,,,,,,,,,,,,,,,,,,,,,,,,,,,,,,,,,,,,,,,,,,,,,,,,,,,,,,,,,,,,,,,,,,,,,,,,,,,BLUE,hotpink,1.1,119.828,121.033,"[""l""]",[0.6030000000000086],[null],[],[],[],[],[],[],[],0,49,49,49,1,classic,57,NI,incongruent,,,,,,,,,,,,,,,,,
,,,,,,,,,,,,,,,,,,test2,0,2020-01-01_00h00.00.000,stroop_artemis_2025.2.3,2025.2.4,MacIntel,61.88118812,,,,,,,,,,,,,,,,,,,,,,,,,,,,,,,,,,,,,,,,,,,,,,,,,,,,,,,,,,,,,,,,,,,,,,,,,,,,,,,,,,,,,,,,,,,,,,,,,,,,,,,,,,,,,,,,,,,,,,PINK,hotpink,1.134,121.036,122.278,"[""l""]",[0.5319999999999823],[null],[],[],[],[],[],[],[],0,50,50,50,1,classic,58,C3I,congruent,,,,,,,,,,,,,,,,,
,,,,,,,,,,,,,,,,,,test2,0,2020-01-01_00h00.00.000,stroop_artemis_2025.2.3,2025.2.4,MacIntel,61.88118812,,,,,,,,,,,,,,,,,,,,,,,,,,,,,,,,,,,,,,,,,,,,,,,,,,,,,,,,,,,,,,,,,,,,,,,,,,,,,,,,,,,,,,,,,,,,,,,,,,,,,,,,,,,,,,,,,,,,,,BROWN,saddlebrown,1.067,122.287,123.463,"[""k""]",[0.6849999999999739],[null],[],[],[],[],[],[],[],0,51,51,51,1,classic,58,C3I,congruent,,,,,,,,,,,,,,,,,
,,,,,,,,,,,,,,,,,,test2,0,2020-01-01_00h00.00.000,stroop_artemis_2025.2.3,2025.2.4,MacIntel,61.88118812,,,,,,,,,,,,,,,,,,,,,,,,,,,,,,,,,,,,,,,,,,,,,,,,,,,,,,,,,,,,,,,,,,,,,,,,,,,,,,,,,,,,,,,,,,,,,,,,,,,,,,,,,,,,,,,,,,,,,,BLUE,blue,1.084,123.466,124.669,"[""j""]",[0.8359999999999843],[null],[],[],[],[],[],[],[],0,52,52,52,1,classic,58,C3I,congruent,,,,,,,,,,,,,,,,,
,,,,,,,,,,,,,,,,,,test2,0,2020-01-01_00h00.00.000,stroop_artemis_2025.2.3,2025.2.4,MacIntel,61.88118812,,,,,,,,,,,,,,,,,,,,,,,,,,,,,,,,,,,,,,,,,,,,,,,,,,,,,,,,,,,,,,,,,,,,,,,,,,,,,,,,,,,,,,,,,,,,,,,,,,,,,,,,,,,,,,,,,,,,,,BROWN,hotpink,1.15,124.67,125.93,"[""l""]",[0.893999999999977],[null],[],[],[],[],[],[],[],0,53,53,53,1,classic,58,C3I,incongruent,,,,,,,,,,,,,,,,,
,,,,,,,,,,,,,,,,,,test2,0,2020-01-01_00h00.00.000,stroop_artemis_2025.2.3,2025.2.4,MacIntel,61.88118812,,,,,,,,,,,,,,,,,,,,,,,,,,,,,,,,,,,,,,,,,,,,,,,,,,,,,,,,,,,,,,,,,,,,,,,,,,,,,,,,,,,,,,,,,,,,,,,,,,,,,,,,,,,,,,,,,,,,,,BLUE,blue,1.134,125.932,127.174,"[""j""]",[0.6360000000000241],[null],[],[],[],[],[],[],[],0,54,54,54,1,classic,59,C6I,congruent,,,,,,,,,,,,,,,,,
,,,,,,,,,,,,,,,,,,test2,0,2020-01-01_00h00.00.000,stroop_artemis_2025.2.3,2025.2.4,MacIntel,61.88118812,,,,,,,,,,,,,,,,,,,,,,,,,,,,,,,,,,,,,,,,,,,,,,,,,,,,,,,,,,,,,,,,,,,,,,,,,,,,,,,,,,,,,,,,,,,,,,,,,,,,,,,,,,,,,,,,,,,,,,PINK,hotpink,1.034,127.176,128.328,"[""l""]",[0.5869999999999891],[null],[],[],[],[],[],[],[],0,55,55,55,1,classic,59,C6I,congruent,,,,,,,,,,,,,,,,,
,,,,,,,,,,,,,,,,,,test2,0,2020-01-01_00h00.00.000,stroop_artemis_2025.2.3,2025.2.4,MacIntel,61.88118812,,,,,,,,,,,,,,,,,,,,,,,,,,,,,,,,,,,,,,,,,,,,,,,,,,,,,,,,,,,,,,,,,,,,,,,,,,,,,,,,,,,,,,,,,,,,,,,,,,,,,,,,,,,,,,,,,,,,,,BROWN,saddlebrown,1.017,128.34,129.455,"[""k""]",[0.6440000000000055],[null],[],[],[],[],[],[],[],0,56,56,56,1,classic,59,C6I,congruent,,,,,,,,,,,,,,,,,
,,,,,,,,,,,,,,,,,,test2,0,2020-01-01_00h00.00.000,stroop_artemis_2025.2.3,2025.2.4,MacIntel,61.88118812,,,,,,,,,,,,,,,,,,,,,,,,,,,,,,,,,,,,,,,,,,,,,,,,,,,,,,,,,,,,,,,,,,,,,,,,,,,,,,,,,,,,,,,,,,,,,,,,,,,,,,,,,,,,,,,,,,,,,,BLUE,blue,1.1,129.457,130.678,"[""j""]",[0.7889999999999873],[null],[],[],[],[],[],[],[],0,57,57,57,1,classic,59,C6I,congruent,,,,,,,,,,,,,,,,,
,,,,,,,,,,,,,,,,,,test2,0,2020-01-01_00h00.00.000,stroop_artemis_2025.2.3,2025.2.4,MacIntel,61.88118812,,,,,,,,,,,,,,,,,,,,,,,,,,,,,,,,,,,,,,,,,,,,,,,,,,,,,,,,,,,,,,,,,,,,,,,,,,,,,,,,,,,,,,,,,,,,,,,,,,,,,,,,,,,,,,,,,,,,,,BROWN,saddlebrown,1.05,130.68,131.839,"[""k""]",[0.6659999999999968],[null],[],[],[],[],[],[],[],0,58,58,58,1,classic,59,C6I,congruent,,,,,,,,,,,,,,,,,
,,,,,,,,,,,,,,,,,,test2,0,2020-01-01_00h00.00.000,stroop_artemis_2025.2.3,2025.2.4,MacIntel,61.88118812,,,,,,,,,,,,,,,,,,,,,,,,,,,,,,,,,,,,,,,,,,,,,,,,,,,,,,,,,,,,,,,,,,,,,,,,,,,,,,,,,,,,,,,,,,,,,,,,,,,,,,,,,,,,,,,,,,,,,,PINK,hotpink,1.184,131.842,133.135,"[""l""]",[0.5130000000000052],[null],[],[],[],[],[],[],[],0,59,59,59,1,classic,59,C6I,congruent,,,,,,,,,,,,,,,,,
,,,,,,,,,,,,,,,,,,test2,0,2020-01-01_00h00.00.000,stroop_artemis_2025.2.3,2025.2.4,MacIntel,61.88118812,,,,,,,,,,,,,,,,,,,,,,,,,,,,,,,,,,,,,,,,,,,,,,,,,,,,,,,,,,,,,,,,,,,,,,,,,,,,,,,,,,,,,,,,,,,,,,,,,,,,,,,,,,,,,,,,,,,,,,PINK,blue,1.117,133.138,134.363,"[""j""]",[0.7439999999999998],[null],[],[],[],[],[],[],[],0,60,60,60,1,classic,59,C6I,incongruent,,,,,,,,,,,,,,,,,
,,,,,,,,,,,,,,,,,,test2,0,2020-01-01_00h00.00.000,stroop_artemis_2025.2.3,2025.2.4,MacIntel,61.88118812,,,,,,,,,,,,,,,,,,,,,,,,,,,,,,,,,,,,,,,,,,,,,,,,,,,,,,,,,,,,,,,,,,,,,,,,,,,,,,,,,,,,,,,,,,,,,,,,,,,,,,,,,,,,,,,,,,,,,,BLUE,saddlebrown,1.2,134.369,135.667,"[""k""]",[0.6580000000000155],[null],[],[],[],[],[],[],[],0,61,61,61,1,classic,60,I4,incongruent,,,,,,,,,,,,,,,,,
,,,,,,,,,,,,,,,,,,test2,0,2020-01-01_00h00.00.000,stroop_artemis_2025.2.3,2025.2.4,MacIntel,61.88118812,,,,,,,,,,,,,,,,,,,,,,,,,,,,,,,,,,,,,,,,,,,,,,,,,,,,,,,,,,,,,,,,,,,,,,,,,,,,,,,,,,,,,,,,,,,,,,,,,,,,,,,,,,,,,,,,,,,,,,BROWN,blue,1,135.67,136.774,,,,[],[],[],[],[],[],[],0,62,62,62,1,classic,60,I4,incongruent,,,,,,,,,,,,,,,,,
,,,,,,,,,,,,,,,,,,test2,0,2020-01-01_00h00.00.000,stroop_artemis_2025.2.3,2025.2.4,MacIntel,61.88118812,,,,,,,,,,,,,,,,,,,,,,,,,,,,,,,,,,,,,,,,,,,,,,,,,,,,,,,,,,,,,,,,,,,,,,,,,,,,,,,,,,,,,,,,,,,,,,,,,,,,,,,,,,,,,,,,,,,,,,PINK,saddlebrown,1.067,136.776,137.953,"[""j"",""k""]","[0.015999999999991132,0.7470000000000141]","[null,null]",[],[],[],[],[],[],[],0,63,63,63,1,classic,60,I4,incongruent,,,,,,,,,,,,,,,,,
,,,,,,,,,,,,,,,,,,test2,0,2020-01-01_00h00.00.000,stroop_artemis_2025.2.3,2025.2.4,MacIntel,61.88118812,,,,,,,,,,,,,,,,,,,,,,,,,,,,,,,,,,,,,,,,,,,,,,,,,,,,,,,,,,,,,,,,,,,,,,,,,,,,,,,,,,,,,,,,,,,,,,,,,,,,,,,,,,,,,,,,,,,,,,BROWN,saddlebrown,1.167,137.955,139.234,"[""k""]",[0.5299999999999727],[null],[],[],[],[],[],[],[],0,64,64,64,1,classic,61,C5I,congruent,,,,,,,,,,,,,,,,,
,,,,,,,,,,,,,,,,,,test2,0,2020-01-01_00h00.00.000,stroop_artemis_2025.2.3,2025.2.4,MacIntel,61.88118812,,,,,,,,,,,,,,,,,,,,,,,,,,,,,,,,,,,,,,,,,,,,,,,,,,,,,,,,,,,,,,,,,,,,,,,,,,,,,,,,,,,,,,,,,,,,,,,,,,,,,,,,,,,,,,,,,,,,,,PINK,hotpink,1.067,139.238,140.422,"[""l""]",[0.39699999999999136],[null],[],[],[],[],[],[],[],0,65,65,65,1,classic,61,C5I,congruent,,,,,,,,,,,,,,,,,
,,,,,,,,,,,,,,,,,,test2,0,2020-01-01_00h00.00.000,stroop_artemis_2025.2.3,2025.2.4,MacIntel,61.88118812,,,,,,,,,,,,,,,,,,,,,,,,,,,,,,,,,,,,,,,,,,,,,,,,,,,,,,,,,,,,,,,,,,,,,,,,,,,,,,,,,,,,,,,,,,,,,,,,,,,,,,,,,,,,,,,,,,,,,,BLUE,blue,1.134,140.433,141.676,"[""j""]",[0.5159999999999911],[null],[],[],[],[],[],[],[],0,66,66,66,1,classic,61,C5I,congruent,,,,,,,,,,,,,,,,,
,,,,,,,,,,,,,,,,,,test2,0,2020-01-01_00h00.00.000,stroop_artemis_2025.2.3,2025.2.4,MacIntel,61.88118812,,,,,,,,,,,,,,,,,,,,,,,,,,,,,,,,,,,,,,,,,,,,,,,,,,,,,,,,,,,,,,,,,,,,,,,,,,,,,,,,,,,,,,,,,,,,,,,,,,,,,,,,,,,,,,,,,,,,,,PINK,hotpink,1.017,141.677,142.808,"[""l""]",[0.5320000000000107],[null],[],[],[],[],[],[],[],0,67,67,67,1,classic,61,C5I,congruent,,,,,,,,,,,,,,,,,
,,,,,,,,,,,,,,,,,,test2,0,2020-01-01_00h00.00.000,stroop_artemis_2025.2.3,2025.2.4,MacIntel,61.88118812,,,,,,,,,,,,,,,,,,,,,,,,,,,,,,,,,,,,,,,,,,,,,,,,,,,,,,,,,,,,,,,,,,,,,,,,,,,,,,,,,,,,,,,,,,,,,,,,,,,,,,,,,,,,,,,,,,,,,,BLUE,blue,1.184,142.809,144.107,"[""j""]",[0.7760000000000105],[null],[],[],[],[],[],[],[],0,68,68,68,1,classic,61,C5I,congruent,,,,,,,,,,,,,,,,,
,,,,,,,,,,,,,,,,,,test2,0,2020-01-01_00h00.00.000,stroop_artemis_2025.2.3,2025.2.4,MacIntel,61.88118812,,,,,,,,,,,,,,,,,,,,,,,,,,,,,,,,,,,,,,,,,,,,,,,,,,,,,,,,,,,,,,,,,,,,,,,,,,,,,,,,,,,,,,,,,,,,,,,,,,,,,,,,,,,,,,,,,,,,,,BLUE,saddlebrown,1,144.108,145.213,"[""k""]",[0.5769999999999982],[null],[],[],[],[],[],[],[],0,69,69,69,1,classic,61,C5I,incongruent,,,,,,,,,,,,,,,,,
,,,,,,,,,,,,,,,,,,test2,0,2020-01-01_00h00.00.000,stroop_artemis_2025.2.3,2025.2.4,MacIntel,61.88118812,,,,,,,,,,,,,,,,,,,,,,,,,,,,,,,,,,,,,,,,,,,,,,,,,,,,,,,,,,,,,,,,,,,,,,,,,,,,,,,,,,,,,,,,,,,,,,,,,,,,,,,,,,,,,,,,,,,,,,XXXX,hotpink,1.117,145.216,146.448,"[""l""]",[0.554000000000002],[null],[],[],[],[],[],[],[],0,70,70,70,1,classic,62,N3I,neutral,,,,,,,,,,,,,,,,,
,,,,,,,,,,,,,,,,,,test2,0,2020-01-01_00h00.00.000,stroop_artemis_2025.2.3,2025.2.4,MacIntel,61.88118812,,,,,,,,,,,,,,,,,,,,,,,,,,,,,,,,,,,,,,,,,,,,,,,,,,,,,,,,,,,,,,,,,,,,,,,,,,,,,,,,,,,,,,,,,,,,,,,,,,,,,,,,,,,,,,,,,,,,,,XXX,blue,1.15,146.45,147.709,"[""j""]",[0.7249999999999943],[null],[],[],[],[],[],[],[],0,71,71,71,1,classic,62,N3I,neutral,,,,,,,,,,,,,,,,,
,,,,,,,,,,,,,,,,,,test2,0,2020-01-01_00h00.00.000,stroop_artemis_2025.2.3,2025.2.4,MacIntel,61.88118812,,,,,,,,,,,,,,,,,,,,,,,,,,,,,,,,,,,,,,,,,,,,,,,,,,,,,,,,,,,,,,,,,,,,,,,,,,,,,,,,,,,,,,,,,,,,,,,,,,,,,,,,,,,,,,,,,,,,,,XXXXX,saddlebrown,1.034,147.712,148.86,"[""k""]",[0.5380000000000109],[null],[],[],[],[],[],[],[],0,72,72,72,1,classic,62,N3I,neutral,,,,,,,,,,,,,,,,,
,,,,,,,,,,,,,,,,,,test2,0,2020-01-01_00h00.00.000,stroop_artemis_2025.2.3,2025.2.4,MacIntel,61.88118812,,,,,,,,,,,,,,,,,,,,,,,,,,,,,,,,,,,,,,,,,,,,,,,,,,,,,,,,,,,,,,,,,,,,,,,,,,,,,,,,,,,,,,,,,,,,,,,,,,,,,,,,,,,,,,,,,,,,,,BROWN,blue,1.084,148.862,150.059,"[""j""]",[0.7399999999999807],[null],[],[],[],[],[],[],[],0,73,73,73,1,classic,62,N3I,incongruent,,,,,,,,,,,,,,,,,
,,,,,,,,,,,,,,,,,,test2,0,2020-01-01_00h00.00.000,stroop_artemis_2025.2.3,2025.2.4,MacIntel,61.88118812,,,,,,,,,,,,,,,,,,,,,,,,,,,,,,,,,,,,,,,,,,,,,,,,,,,,,,,,,,,,,,,,,,,,,,,,,,,,,,,,,,,,,,,,,,,,,,,,,,,,,,,,,,,,,,,,,,,,,,BROWN,saddlebrown,1.167,150.061,151.334,"[""k""]",[0.6059999999999945],[null],[],[],[],[],[],[],[],0,74,74,74,1,classic,63,C7I,congruent,,,,,,,,,,,,,,,,,
,,,,,,,,,,,,,,,,,,test2,0,2020-01-01_00h00.00.000,stroop_artemis_2025.2.3,2025.2.4,MacIntel,61.88118812,,,,,,,,,,,,,,,,,,,,,,,,,,,,,,,,,,,,,,,,,,,,,,,,,,,,,,,,,,,,,,,,,,,,,,,,,,,,,,,,,,,,,,,,,,,,,,,,,,,,,,,,,,,,,,,,,,,,,,BLUE,blue,1.05,151.336,152.494,"[""j""]",[0.6049999999999898],[null],[],[],[],[],[],[],[],0,75,75,75,1,classic,63,C7I,congruent,,,,,,,,,,,,,,,,,
,,,,,,,,,,,,,,,,,,test2,0,2020-01-01_00h00.00.000,stroop_artemis_2025.2.3,2025.2.4,MacIntel,61.88118812,,,,,,,,,,,,,,,,,,,,,,,,,,,,,,,,,,,,,,,,,,,,,,,,,,,,,,,,,,,,,,,,,,,,,,,,,,,,,,,,,,,,,,,,,,,,,,,,,,,,,,,,,,,,,,,,,,,,,,PINK,hotpink,1.1,152.497,153.702,"[""l""]",[0.7479999999999905],[null],[],[],[],[],[],[],[],0,76,76,76,1,classic,63,C7I,congruent,,,,,,,,,,,,,,,,,
,,,,,,,,,,,,,,,,,,test2,0,2020-01-01_00h00.00.000,stroop_artemis_2025.2.3,2025.2.4,MacIntel,61.88118812,,,,,,,,,,,,,,,,,,,,,,,,,,,,,,,,,,,,,,,,,,,,,,,,,,,,,,,,,,,,,,,,,,,,,,,,,,,,,,,,,,,,,,,,,,,,,,,,,,,,,,,,,,,,,,,,,,,,,,BROWN,saddlebrown,1.2,153.703,155.011,"[""k""]",[0.6519999999999868],[null],[],[],[],[],[],[],[],0,77,77,77,1,classic,63,C7I,congruent,,,,,,,,,,,,,,,,,
,,,,,,,,,,,,,,,,,,test2,0,2020-01-01_00h00.00.000,stroop_artemis_2025.2.3,2025.2.4,MacIntel,61.88118812,,,,,,,,,,,,,,,,,,,,,,,,,,,,,,,,,,,,,,,,,,,,,,,,,,,,,,,,,,,,,,,,,,,,,,,,,,,,,,,,,,,,,,,,,,,,,,,,,,,,,,,,,,,,,,,,,,,,,,PINK,hotpink,1.2,155.016,156.33,"[""l""]",[0.6270000000000095],[null],[],[],[],[],[],[],[],0,78,78,78,1,classic,63,C7I,congruent,,,,,,,,,,,,,,,,,
,,,,,,,,,,,,,,,,,,test2,0,2020-01-01_00h00.00.000,stroop_artemis_2025.2.3,2025.2.4,MacIntel,61.88118812,,,,,,,,,,,,,,,,,,,,,,,,,,,,,,,,,,,,,,,,,,,,,,,,,,,,,,,,,,,,,,,,,,,,,,,,,,,,,,,,,,,,,,,,,,,,,,,,,,,,,,,,,,,,,,,,,,,,,,BROWN,saddlebrown,1.05,156.335,157.49,"[""k""]",[0.539999999999992],[null],[],[],[],[],[],[],[],0,79,79,79,1,classic,63,C7I,congruent,,,,,,,,,,,,,,,,,
,,,,,,,,,,,,,,,,,,test2,0,2020-01-01_00h00.00.000,stroop_artemis_2025.2.3,2025.2.4,MacIntel,61.88118812,,,,,,,,,,,,,,,,,,,,,,,,,,,,,,,,,,,,,,,,,,,,,,,,,,,,,,,,,,,,,,,,,,,,,,,,,,,,,,,,,,,,,,,,,,,,,,,,,,,,,,,,,,,,,,,,,,,,,,BLUE,blue,1.017,157.496,158.622,"[""j""]",[0.7340000000000089],[null],[],[],[],[],[],[],[],0,80,80,80,1,classic,63,C7I,congruent,,,,,,,,,,,,,,,,,
,,,,,,,,,,,,,,,,,,test2,0,2020-01-01_00h00.00.000,stroop_artemis_2025.2.3,2025.2.4,MacIntel,61.88118812,,,,,,,,,,,,,,,,,,,,,,,,,,,,,,,,,,,,,,,,,,,,,,,,,,,,,,,,,,,,,,,,,,,,,,,,,,,,,,,,,,,,,,,,,,,,,,,,,,,,,,,,,,,,,,,,,,,,,,BLUE,hotpink,1,158.623,159.726,"[""l""]",[0.8260000000000218],[null],[],[],[],[],[],[],[],0,81,81,81,1,classic,63,C7I,incongruent,,,,,,,,,,,,,,,,,
,,,,,,,,,,,,,,,,,,test2,0,2020-01-01_00h00.00.000,stroop_artemis_2025.2.3,2025.2.4,MacIntel,61.88118812,,,,,,,,,,,,,,,,,,,,,,,,,,,,,,,,,,,,,,,,,,,,,,,,,,,,,,,,,,,,,,,,,,,,,,,,,,,,,,,,,,,,,,,,,,,,,,,,,,,,,,,,,,,,,,,,,,,,,,BROWN,saddlebrown,1.067,159.728,160.915,"[""k""]",[0.6329999999999814],[null],[],[],[],[],[],[],[],0,82,82,82,1,classic,64,CI,congruent,,,,,,,,,,,,,,,,,
,,,,,,,,,,,,,,,,,,test2,0,2020-01-01_00h00.00.000,stroop_artemis_2025.2.3,2025.2.4,MacIntel,61.88118812,,,,,,,,,,,,,,,,,,,,,,,,,,,,,,,,,,,,,,,,,,,,,,,,,,,,,,,,,,,,,,,,,,,,,,,,,,,,,,,,,,,,,,,,,,,,,,,,,,,,,,,,,,,,,,,,,,,,,,BROWN,hotpink,1.184,160.926,162.215,"[""k"",""l""]","[0.6740000000000066,0.945999999999998]","[null,null]",[],[],[],[],[],[],[],0,83,83,83,1,classic,64,CI,incongruent,,,,,,,,,,,,,,,,,
,,,,,,,,,,,,,,,,,,test2,0,2020-01-01_00h00.00.000,stroop_artemis_2025.2.3,2025.2.4,MacIntel,61.88118812,,,,,,,,,,,,,,,,,,,,,,,,,,,,,,,,,,,,,,,,,,,,,,,,,,,,,,,,,,,,,,,,,,,,,,,,,,,,,,,,,,,,,,,,,,,,,,,,,,,,,,,,,,,,,,,,,,,,,,PINK,blue,1.034,162.224,163.361,"[""j""]",[0.8969999999999914],[null],[],[],[],[],[],[],[],0,84,84,84,1,classic,65,I2,incongruent,,,,,,,,,,,,,,,,,
,,,,,,,,,,,,,,,,,,test2,0,2020-01-01_00h00.00.000,stroop_artemis_2025.2.3,2025.2.4,MacIntel,61.88118812,,,,,,,,,,,,,,,,,,,,,,,,,,,,,,,,,,,,,,,,,,,,,,,,,,,,,,,,,,,,,,,,,,,,,,,,,,,,,,,,,,,,,,,,,,,,,,,,,,,,,,,,,,,,,,,,,,,,,,BLUE,blue,1.084,163.363,164.55,"[""j""]",[1.0660000000000025],[null],[],[],[],[],[],[],[],0,85,85,85,1,classic,66,C3I,congruent,,,,,,,,,,,,,,,,,
,,,,,,,,,,,,,,,,,,test2,0,2020-01-01_00h00.00.000,stroop_artemis_2025.2.3,2025.2.4,MacIntel,61.88118812,,,,,,,,,,,,,,,,,,,,,,,,,,,,,,,,,,,,,,,,,,,,,,,,,,,,,,,,,,,,,,,,,,,,,,,,,,,,,,,,,,,,,,,,,,,,,,,,,,,,,,,,,,,,,,,,,,,,,,PINK,hotpink,1.167,164.552,165.834,"[""l""]",[0.9159999999999968],[null],[],[],[],[],[],[],[],0,86,86,86,1,classic,66,C3I,congruent,,,,,,,,,,,,,,,,,
,,,,,,,,,,,,,,,,,,test2,0,2020-01-01_00h00.00.000,stroop_artemis_2025.2.3,2025.2.4,MacIntel,61.88118812,,,,,,,,,,,,,,,,,,,,,,,,,,,,,,,,,,,,,,,,,,,,,,,,,,,,,,,,,,,,,,,,,,,,,,,,,,,,,,,,,,,,,,,,,,,,,,,,,,,,,,,,,,,,,,,,,,,,,,BLUE,blue,1.1,165.838,167.046,"[""j""]",[1.0509999999999877],[null],[],[],[],[],[],[],[],0,87,87,87,1,classic,66,C3I,congruent,,,,,,,,,,,,,,,,,
,,,,,,,,,,,,,,,,,,test2,0,2020-01-01_00h00.00.000,stroop_artemis_2025.2.3,2025.2.4,MacIntel,61.88118812,,,,,,,,,,,,,,,,,,,,,,,,,,,,,,,,,,,,,,,,,,,,,,,,,,,,,,,,,,,,,,,,,,,,,,,,,,,,,,,,,,,,,,,,,,,,,,,,,,,,,,,,,,,,,,,,,,,,,,BLUE,hotpink,1.134,167.053,168.292,"[""l""]",[0.9150000000000205],[null],[],[],[],[],[],[],[],0,88,88,88,1,classic,66,C3I,incongruent,,,,,,,,,,,,,,,,,
,,,,,,,,,,,,,,,,,,test2,0,2020-01-01_00h00.00.000,stroop_artemis_2025.2.3,2025.2.4,MacIntel,61.88118812,,,,,,,,,,,,,,,,,,,,,,,,,,,,,,,,,,,,,,,,,,,,,,,,,,,,,,,,,,,,,,,,,,,,,,,,,,,,,,,,,,,,,,,,,,,,,,,,,,,,,,,,,,,,,,,,,,,,,,PINK,hotpink,1.117,168.297,169.53,"[""l""]",[0.6180000000000234],[null],[],[],[],[],[],[],[],0,89,89,89,1,classic,67,C7I,congruent,,,,,,,,,,,,,,,,,
,,,,,,,,,,,,,,,,,,test2,0,2020-01-01_00h00.00.000,stroop_artemis_2025.2.3,2025.2.4,MacIntel,61.88118812,,,,,,,,,,,,,,,,,,,,,,,,,,,,,,,,,,,,,,,,,,,,,,,,,,,,,,,,,,,,,,,,,,,,,,,,,,,,,,,,,,,,,,,,,,,,,,,,,,,,,,,,,,,,,,,,,,,,,,BROWN,saddlebrown,1.15,169.532,170.798,"[""k""]",[0.5420000000000016],[null],[],[],[],[],[],[],[],0,90,90,90,1,classic,67,C7I,congruent,,,,,,,,,,,,,,,,,
,,,,,,,,,,,,,,,,,,test2,0,2020-01-01_00h00.00.000,stroop_artemis_2025.2.3,2025.2.4,MacIntel,61.88118812,,,,,,,,,,,,,,,,,,,,,,,,,,,,,,,,,,,,,,,,,,,,,,,,,,,,,,,,,,,,,,,,,,,,,,,,,,,,,,,,,,,,,,,,,,,,,,,,,,,,,,,,,,,,,,,,,,,,,,PINK,hotpink,1.117,170.8,172.025,"[""l""]",[0.7270000000000039],[null],[],[],[],[],[],[],[],0,91,91,91,1,classic,67,C7I,congruent,,,,,,,,,,,,,,,,,
,,,,,,,,,,,,,,,,,,test2,0,2020-01-01_00h00.00.000,stroop_artemis_2025.2.3,2025.2.4,MacIntel,61.88118812,,,,,,,,,,,,,,,,,,,,,,,,,,,,,,,,,,,,,,,,,,,,,,,,,,,,,,,,,,,,,,,,,,,,,,,,,,,,,,,,,,,,,,,,,,,,,,,,,,,,,,,,,,,,,,,,,,,,,,BROWN,saddlebrown,1.134,172.03,173.274,"[""k""]",[0.7750000000000057],[null],[],[],[],[],[],[],[],0,92,92,92,1,classic,67,C7I,congruent,,,,,,,,,,,,,,,,,
,,,,,,,,,,,,,,,,,,test2,0,2020-01-01_00h00.00.000,stroop_artemis_2025.2.3,2025.2.4,MacIntel,61.88118812,,,,,,,,,,,,,,,,,,,,,,,,,,,,,,,,,,,,,,,,,,,,,,,,,,,,,,,,,,,,,,,,,,,,,,,,,,,,,,,,,,,,,,,,,,,,,,,,,,,,,,,,,,,,,,,,,,,,,,BLUE,blue,1,173.277,174.386,"[""j""]",[0.8169999999999789],[null],[],[],[],[],[],[],[],0,93,93,93,1,classic,67,C7I,congruent,,,,,,,,,,,,,,,,,
,,,,,,,,,,,,,,,,,,test2,0,2020-01-01_00h00.00.000,stroop_artemis_2025.2.3,2025.2.4,MacIntel,61.88118812,,,,,,,,,,,,,,,,,,,,,,,,,,,,,,,,,,,,,,,,,,,,,,,,,,,,,,,,,,,,,,,,,,,,,,,,,,,,,,,,,,,,,,,,,,,,,,,,,,,,,,,,,,,,,,,,,,,,,,PINK,hotpink,1.2,174.387,175.692,"[""l""]",[0.693000000000012],[null],[],[],[],[],[],[],[],0,94,94,94,1,classic,67,C7I,congruent,,,,,,,,,,,,,,,,,
,,,,,,,,,,,,,,,,,,test2,0,2020-01-01_00h00.00.000,stroop_artemis_2025.2.3,2025.2.4,MacIntel,61.88118812,,,,,,,,,,,,,,,,,,,,,,,,,,,,,,,,,,,,,,,,,,,,,,,,,,,,,,,,,,,,,,,,,,,,,,,,,,,,,,,,,,,,,,,,,,,,,,,,,,,,,,,,,,,,,,,,,,,,,,BROWN,saddlebrown,1.084,175.694,176.885,"[""k""]",[0.6940000000000168],[null],[],[],[],[],[],[],[],0,95,95,95,1,classic,67,C7I,congruent,,,,,,,,,,,,,,,,,
,,,,,,,,,,,,,,,,,,test2,0,2020-01-01_00h00.00.000,stroop_artemis_2025.2.3,2025.2.4,MacIntel,61.88118812,,,,,,,,,,,,,,,,,,,,,,,,,,,,,,,,,,,,,,,,,,,,,,,,,,,,,,,,,,,,,,,,,,,,,,,,,,,,,,,,,,,,,,,,,,,,,,,,,,,,,,,,,,,,,,,,,,,,,,PINK,blue,1.05,176.888,178.047,"[""l""]",[0.8340000000000032],[null],[],[],[],[],[],[],[],0,96,96,96,1,classic,67,C7I,incongruent,,,,,,,,,,,,,,,,,
,,,,,,,,,,,,,,,,,,test2,0,2020-01-01_00h00.00.000,stroop_artemis_2025.2.3,2025.2.4,MacIntel,61.88118812,,,,,,,,,,,,,,,,,,,,,,,,,,,,,,,,,,,,,,,,,,,,,,,,,,,,,,,,,,,,,,,,,,,,,,,,,,,,,,,,,,,,,,,,,,,,,,,,,,,,,,,,,,,,,,,,,,,,,,XXX,blue,1.1,178.05,179.261,"[""j""]",[0.7870000000000061],[null],[],[],[],[],[],[],[],0,97,97,97,1,classic,68,NI,neutral,,,,,,,,,,,,,,,,,
,,,,,,,,,,,,,,,,,,test2,0,2020-01-01_00h00.00.000,stroop_artemis_2025.2.3,2025.2.4,MacIntel,61.88118812,,,,,,,,,,,,,,,,,,,,,,,,,,,,,,,,,,,,,,,,,,,,,,,,,,,,,,,,,,,,,,,,,,,,,,,,,,,,,,,,,,,,,,,,,,,,,,,,,,,,,,,,,,,,,,,,,,,,,,BROWN,hotpink,1.034,179.264,180.415,,,,[],[],[],[],[],[],[],0,98,98,98,1,classic,68,NI,incongruent,,,,,,,,,,,,,,,,,
,,,,,,,,,,,,,,,,,,test2,0,2020-01-01_00h00.00.000,stroop_artemis_2025.2.3,2025.2.4,MacIntel,61.88118812,,,,,,,,,,,,,,,,,,,,,,,,,,,,,,,,,,,,,,,,,,,,,,,,,,,,,,,,,,,,,,,,,,,,,,,,,,,,,,,,,,,,,,,,,,,,,,,,,,,,,,,,,,,,,,,,,,,,,,BLUE,blue,1.017,180.416,181.536,"[""l"",""j""]","[0.14000000000001478,0.6580000000000155]","[null,null]",[],[],[],[],[],[],[],0,99,99,99,1,classic,69,C6I,congruent,,,,,,,,,,,,,,,,,
,,,,,,,,,,,,,,,,,,test2,0,2020-01-01_00h00.00.000,stroop_artemis_2025.2.3,2025.2.4,MacIntel,61.88118812,,,,,,,,,,,,,,,,,,,,,,,,,,,,,,,,,,,,,,,,,,,,,,,,,,,,,,,,,,,,,,,,,,,,,,,,,,,,,,,,,,,,,,,,,,,,,,,,,,,,,,,,,,,,,,,,,,,,,,BROWN,saddlebrown,1.15,181.538,182.797,"[""k""]",[0.6599999999999966],[null],[],[],[],[],[],[],[],0,100,100,100,1,classic,69,C6I,congruent,,,,,,,,,,,,,,,,,
,,,,,,,,,,,,,,,,,,test2,0,2020-01-01_00h00.00.000,stroop_artemis_2025.2.3,2025.2.4,MacIntel,61.88118812,,,,,,,,,,,,,,,,,,,,,,,,,,,,,,,,,,,,,,,,,,,,,,,,,,,,,,,,,,,,,,,,,,,,,,,,,,,,,,,,,,,,,,,,,,,,,,,,,,,,,,,,,,,,,,,,,,,,,,BLUE,blue,1.067,182.801,183.98,"[""j""]",[0.8459999999999752],[null],[],[],[],[],[],[],[],0,101,101,101,1,classic,69,C6I,congruent,,,,,,,,,,,,,,,,,
,,,,,,,,,,,,,,,,,,test2,0,2020-01-01_00h00.00.000,stroop_artemis_2025.2.3,2025.2.4,MacIntel,61.88118812,,,,,,,,,,,,,,,,,,,,,,,,,,,,,,,,,,,,,,,,,,,,,,,,,,,,,,,,,,,,,,,,,,,,,,,,,,,,,,,,,,,,,,,,,,,,,,,,,,,,,,,,,,,,,,,,,,,,,,PINK,hotpink,1.184,183.983,185.272,"[""l""]",[0.5720000000000027],[null],[],[],[],[],[],[],[],0,102,102,102,1,classic,69,C6I,congruent,,,,,,,,,,,,,,,,,
,,,,,,,,,,,,,,,,,,test2,0,2020-01-01_00h00.00.000,stroop_artemis_2025.2.3,2025.2.4,MacIntel,61.88118812,,,,,,,,,,,,,,,,,,,,,,,,,,,,,,,,,,,,,,,,,,,,,,,,,,,,,,,,,,,,,,,,,,,,,,,,,,,,,,,,,,,,,,,,,,,,,,,,,,,,,,,,,,,,,,,,,,,,,,BROWN,saddlebrown,1.167,185.275,186.557,"[""k""]",[0.5289999999999964],[null],[],[],[],[],[],[],[],0,103,103,103,1,classic,69,C6I,congruent,,,,,,,,,,,,,,,,,
,,,,,,,,,,,,,,,,,,test2,0,2020-01-01_00h00.00.000,stroop_artemis_2025.2.3,2025.2.4,MacIntel,61.88118812,,,,,,,,,,,,,,,,,,,,,,,,,,,,,,,,,,,,,,,,,,,,,,,,,,,,,,,,,,,,,,,,,,,,,,,,,,,,,,,,,,,,,,,,,,,,,,,,,,,,,,,,,,,,,,,,,,,,,,PINK,hotpink,1,186.559,187.676,"[""l""]",[0.5029999999999859],[null],[],[],[],[],[],[],[],0,104,104,104,1,classic,69,C6I,congruent,,,,,,,,,,,,,,,,,
,,,,,,,,,,,,,,,,,,test2,0,2020-01-01_00h00.00.000,stroop_artemis_2025.2.3,2025.2.4,MacIntel,61.88118812,,,,,,,,,,,,,,,,,,,,,,,,,,,,,,,,,,,,,,,,,,,,,,,,,,,,,,,,,,,,,,,,,,,,,,,,,,,,,,,,,,,,,,,,,,,,,,,,,,,,,,,,,,,,,,,,,,,,,,BLUE,saddlebrown,1.184,187.68,188.963,"[""j""]",[0.7580000000000098],[null],[],[],[],[],[],[],[],0,105,105,105,1,classic,69,C6I,incongruent,,,,,,,,,,,,,,,,,
,,,,,,,,,,,,,,,,,,test2,0,2020-01-01_00h00.00.000,stroop_artemis_2025.2.3,2025.2.4,MacIntel,61.88118812,,,,,,,,,,,,,,,,,,,,,,,,,,,,,,,,,,,,,,,,,,,,,,,,,,,,,,,,,,,,,,,,,,,,,,,,,,,,,,,,,,,,,,,,,,,,,,,,,,,,,,,,,,,,,,,,,,,,,,BLUE,blue,1.2,188.964,190.281,"[""j""]",[0.5649999999999977],[null],[],[],[],[],[],[],[],0,106,106,106,1,classic,70,C5I,congruent,,,,,,,,,,,,,,,,,
,,,,,,,,,,,,,,,,,,test2,0,2020-01-01_00h00.00.000,stroop_artemis_2025.2.3,2025.2.4,MacIntel,61.88118812,,,,,,,,,,,,,,,,,,,,,,,,,,,,,,,,,,,,,,,,,,,,,,,,,,,,,,,,,,,,,,,,,,,,,,,,,,,,,,,,,,,,,,,,,,,,,,,,,,,,,,,,,,,,,,,,,,,,,,BROWN,saddlebrown,1.117,190.283,191.516,"[""k""]",[0.5979999999999848],[null],[],[],[],[],[],[],[],0,107,107,107,1,classic,70,C5I,congruent,,,,,,,,,,,,,,,,,
,,,,,,,,,,,,,,,,,,test2,0,2020-01-01_00h00.00.000,stroop_artemis_2025.2.3,2025.2.4,MacIntel,61.88118812,,,,,,,,,,,,,,,,,,,,,,,,,,,,,,,,,,,,,,,,,,,,,,,,,,,,,,,,,,,,,,,,,,,,,,,,,,,,,,,,,,,,,,,,,,,,,,,,,,,,,,,,,,,,,,,,,,,,,,BLUE,blue,1.084,191.518,192.719,"[""j""]",[0.6610000000000014],[null],[],[],[],[],[],[],[],0,108,108,108,1,classic,70,C5I,congruent,,,,,,,,,,,,,,,,,
,,,,,,,,,,,,,,,,,,test2,0,2020-01-01_00h00.00.000,stroop_artemis_2025.2.3,2025.2.4,MacIntel,61.88118812,,,,,,,,,,,,,,,,,,,,,,,,,,,,,,,,,,,,,,,,,,,,,,,,,,,,,,,,,,,,,,,,,,,,,,,,,,,,,,,,,,,,,,,,,,,,,,,,,,,,,,,,,,,,,,,,,,,,,,PINK,hotpink,1.134,192.734,193.962,"[""l""]",[0.5459999999999923],[null],[],[],[],[],[],[],[],0,109,109,109,1,classic,70,C5I,congruent,,,,,,,,,,,,,,,,,
,,,,,,,,,,,,,,,,,,test2,0,2020-01-01_00h00.00.000,stroop_artemis_2025.2.3,2025.2.4,MacIntel,61.88118812,,,,,,,,,,,,,,,,,,,,,,,,,,,,,,,,,,,,,,,,,,,,,,,,,,,,,,,,,,,,,,,,,,,,,,,,,,,,,,,,,,,,,,,,,,,,,,,,,,,,,,,,,,,,,,,,,,,,,,BROWN,saddlebrown,1.05,193.966,195.126,"[""k""]",[0.3889999999999816],[null],[],[],[],[],[],[],[],0,110,110,110,1,classic,70,C5I,congruent,,,,,,,,,,,,,,,,,
,,,,,,,,,,,,,,,,,,test2,0,2020-01-01_00h00.00.000,stroop_artemis_2025.2.3,2025.2.4,MacIntel,61.88118812,,,,,,,,,,,,,,,,,,,,,,,,,,,,,,,,,,,,,,,,,,,,,,,,,,,,,,,,,,,,,,,,,,,,,,,,,,,,,,,,,,,,,,,,,,,,,,,,,,,,,,,,,,,,,,,,,,,,,,PINK,saddlebrown,1.167,195.129,196.415,"[""k""]",[0.5370000000000061],[null],[],[],[],[],[],[],[],0,111,111,111,1,classic,70,C5I,incongruent,,,,,,,,,,,,,,,,,
,,,,,,,,,,,,,,,,,,test2,0,2020-01-01_00h00.00.000,stroop_artemis_2025.2.3,2025.2.4,MacIntel,61.88118812,,,,,,,,,,,,,,,,,,,,,,,,,,,,,,,,,,,,,,,,,,,,,,,,,,,,,,,,,,,,,,,,,,,,,,,,,,,,,,,,,,,,,,,,,,,,,,,,,,,,,,,,,,,,,,,,,,,,,,XXXX,hotpink,1.1,196.417,197.648,"[""l""]",[0.9739999999999895],[null],[],[],[],[],[],[],[],0,112,112,112,1,classic,71,N3I,neutral,,,,,,,,,,,,,,,,,
,,,,,,,,,,,,,,,,,,test2,0,2020-01-01_00h00.00.000,stroop_artemis_2025.2.3,2025.2.4,MacIntel,61.88118812,,,,,,,,,,,,,,,,,,,,,,,,,,,,,,,,,,,,,,,,,,,,,,,,,,,,,,,,,,,,,,,,,,,,,,,,,,,,,,,,,,,,,,,,,,,,,,,,,,,,,,,,,,,,,,,,,,,,,,XXXXX,saddlebrown,1.017,197.651,198.781,"[""k""]",[0.8159999999999741],[null],[],[],[],[],[],[],[],0,113,113,113,1,classic,71,N3I,neutral,,,,,,,,,,,,,,,,,
,,,,,,,,,,,,,,,,,,test2,0,2020-01-01_00h00.00.000,stroop_artemis_2025.2.3,2025.2.4,MacIntel,61.88118812,,,,,,,,,,,,,,,,,,,,,,,,,,,,,,,,,,,,,,,,,,,,,,,,,,,,,,,,,,,,,,,,,,,,,,,,,,,,,,,,,,,,,,,,,,,,,,,,,,,,,,,,,,,,,,,,,,,,,,XXXX,hotpink,1.067,198.783,199.958,"[""l""]",[0.950000000000017],[null],[],[],[],[],[],[],[],0,114,114,114,1,classic,71,N3I,neutral,,,,,,,,,,,,,,,,,
,,,,,,,,,,,,,,,,,,test2,0,2020-01-01_00h00.00.000,stroop_artemis_2025.2.3,2025.2.4,MacIntel,61.88118812,,,,,,,,,,,,,,,,,,,,,,,,,,,,,,,,,,,,,,,,,,,,,,,,,,,,,,,,,,,,,,,,,,,,,,,,,,,,,,,,,,,,,,,,,,,,,,,,,,,,,,,,,,,,,,,,,,,,,,BROWN,blue,1.034,199.959,201.112,"[""j""]",[0.9729999999999848],[null],[],[],[],[],[],[],[],0,115,115,115,1,classic,71,N3I,incongruent,,,,,,,,,,,,,,,,,
,,,,,,,,,,,,,,,,,,test2,0,2020-01-01_00h00.00.000,stroop_artemis_2025.2.3,2025.2.4,MacIntel,61.88118812,,,,,,,,,,,,,,,,,,,,,,,,,,,,,,,,,,,,,,,,,,,,,,,,,,,,,,,,,,,,,,,,,,,,,,,,,,,,,,,,,,,,,,,,,,,,,,,,,,,,,,,,,,,,,,,,,,,,,,BLUE,blue,1.15,201.114,202.369,"[""j""]",[0.5740000000000123],[null],[],[],[],[],[],[],[],0,116,116,116,1,classic,72,CI,congruent,,,,,,,,,,,,,,,,,
,,,,,,,,,,,,,,,,,,test2,0,2020-01-01_00h00.00.000,stroop_artemis_2025.2.3,2025.2.4,MacIntel,61.88118812,,,,,,,,,,,,,,,,,,,,,,,,,,,,,,,,,,,,,,,,,,,,,,,,,,,,,,,,,,,,,,,,,,,,,,,,,,,,,,,,,,,,,,,,,,,,,,,,,,,,,,,,,,,,,,,,,,,,,,PINK,saddlebrown,1.184,202.373,203.667,"[""k""]",[0.5730000000000075],[null],[],[],[],[],[],[],[],0,117,117,117,1,classic,72,CI,incongruent,,,,,,,,,,,,,,,,,
,,,,,,,,,,,,,,,,,,test2,0,2020-01-01_00h00.00.000,stroop_artemis_2025.2.3,2025.2.4,MacIntel,61.88118812,,,,,,,,,,,,,,,,,,,,,,,,,,,,,,,,,,,,,,,,,,,,,,,,,,,,,,,,,,,,,,,,,,,,,,,,,,,,,,,,,,,,,,,,,,,,,,,,,,,,,,,,,,,,,,,,,,,,,,PINK,hotpink,1.167,203.668,204.949,"[""l""]",[0.6480000000000246],[null],[],[],[],[],[],[],[],0,118,118,118,1,classic,73,C6I,congruent,,,,,,,,,,,,,,,,,
,,,,,,,,,,,,,,,,,,test2,0,2020-01-01_00h00.00.000,stroop_artemis_2025.2.3,2025.2.4,MacIntel,61.88118812,,,,,,,,,,,,,,,,,,,,,,,,,,,,,,,,,,,,,,,,,,,,,,,,,,,,,,,,,,,,,,,,,,,,,,,,,,,,,,,,,,,,,,,,,,,,,,,,,,,,,,,,,,,,,,,,,,,,,,BLUE,blue,1.2,204.951,206.269,"[""j""]",[0.5480000000000018],[null],[],[],[],[],[],[],[],0,119,119,119,1,classic,73,C6I,congruent,,,,,,,,,,,,,,,,,
,,,,,,,,,,,,,,,,,,test2,0,2020-01-01_00h00.00.000,stroop_artemis_2025.2.3,2025.2.4,MacIntel,61.88118812,,,,,,,,,,,,,,,,,,,,,,,,,,,,,,,,,,,,,,,,,,,,,,,,,,,,,,,,,,,,,,,,,,,,,,,,,,,,,,,,,,,,,,,,,,,,,,,,,,,,,,,,,,,,,,,,,,,,,,PINK,hotpink,1.117,206.271,207.503,"[""l""]",[0.5980000000000132],[null],[],[],[],[],[],[],[],0,120,120,120,1,classic,73,C6I,congruent,,,,,,,,,,,,,,,,,
,,,,,,,,,,,,,,,,,,test2,0,2020-01-01_00h00.00.000,stroop_artemis_2025.2.3,2025.2.4,MacIntel,61.88118812,,,,,,,,,,,,,,,,,,,,,,,,,,,,,,,,,,,,,,,,,,,,,,,,,,,,,,,,,,,,,,,,,,,,,,,,,,,,,,,,,,,,,,,,,,,,,,,,,,,,,,,,,,,,,,,,,,,,,,BROWN,saddlebrown,1,207.506,208.628,"[""k""]",[0.3850000000000193],[null],[],[],[],[],[],[],[],0,121,121,121,1,classic,73,C6I,congruent,,,,,,,,,,,,,,,,,
,,,,,,,,,,,,,,,,,,test2,0,2020-01-01_00h00.00.000,stroop_artemis_2025.2.3,2025.2.4,MacIntel,61.88118812,,,,,,,,,,,,,,,,,,,,,,,,,,,,,,,,,,,,,,,,,,,,,,,,,,,,,,,,,,,,,,,,,,,,,,,,,,,,,,,,,,,,,,,,,,,,,,,,,,,,,,,,,,,,,,,,,,,,,,BLUE,blue,1.034,208.63,209.77,"[""j""]",[0.5949999999999989],[null],[],[],[],[],[],[],[],0,122,122,122,1,classic,73,C6I,congruent,,,,,,,,,,,,,,,,,
,,,,,,,,,,,,,,,,,,test2,0,2020-01-01_00h00.00.000,stroop_artemis_2025.2.3,2025.2.4,MacIntel,61.88118812,,,,,,,,,,,,,,,,,,,,,,,,,,,,,,,,,,,,,,,,,,,,,,,,,,,,,,,,,,,,,,,,,,,,,,,,,,,,,,,,,,,,,,,,,,,,,,,,,,,,,,,,,,,,,,,,,,,,,,BROWN,saddlebrown,1.1,209.772,210.994,"[""k""]",[0.5459999999999923],[null],[],[],[],[],[],[],[],0,123,123,123,1,classic,73,C6I,congruent,,,,,,,,,,,,,,,,,
,,,,,,,,,,,,,,,,,,test2,0,2020-01-01_00h00.00.000,stroop_artemis_2025.2.3,2025.2.4,MacIntel,61.88118812,,,,,,,,,,,,,,,,,,,,,,,,,,,,,,,,,,,,,,,,,,,,,,,,,,,,,,,,,,,,,,,,,,,,,,,,,,,,,,,,,,,,,,,,,,,,,,,,,,,,,,,,,,,,,,,,,,,,,,PINK,blue,1.067,210.996,212.182,"[""j""]",[0.8899999999999864],[null],[],[],[],[],[],[],[],0,124,124,124,1,classic,73,C6I,incongruent,,,,,,,,,,,,,,,,,
,,,,,,,,,,,,,,,,,,test2,0,2020-01-01_00h00.00.000,stroop_artemis_2025.2.3,2025.2.4,MacIntel,61.88118812,,,,,,,,,,,,,,,,,,,,,,,,,,,,,,,,,,,,,,,,,,,,,,,,,,,,,,,,,,,,,,,,,,,,,,,,,,,,,,,,,,,,,,,,,,,,,,,,,,,,,,,,,,,,,,,,,,,,,,PINK,hotpink,1.084,212.184,213.388,"[""l""]",[0.5730000000000075],[null],[],[],[],[],[],[],[],0,125,125,125,1,classic,74,C4I,congruent,,,,,,,,,,,,,,,,,
,,,,,,,,,,,,,,,,,,test2,0,2020-01-01_00h00.00.000,stroop_artemis_2025.2.3,2025.2.4,MacIntel,61.88118812,,,,,,,,,,,,,,,,,,,,,,,,,,,,,,,,,,,,,,,,,,,,,,,,,,,,,,,,,,,,,,,,,,,,,,,,,,,,,,,,,,,,,,,,,,,,,,,,,,,,,,,,,,,,,,,,,,,,,,BLUE,blue,1.017,213.39,214.514,"[""j""]",[0.46999999999999886],[null],[],[],[],[],[],[],[],0,126,126,126,1,classic,74,C4I,congruent,,,,,,,,,,,,,,,,,
,,,,,,,,,,,,,,,,,,test2,0,2020-01-01_00h00.00.000,stroop_artemis_2025.2.3,2025.2.4,MacIntel,61.88118812,,,,,,,,,,,,,,,,,,,,,,,,,,,,,,,,,,,,,,,,,,,,,,,,,,,,,,,,,,,,,,,,,,,,,,,,,,,,,,,,,,,,,,,,,,,,,,,,,,,,,,,,,,,,,,,,,,,,,,BROWN,saddlebrown,1.15,214.516,215.769,"[""k""]",[0.582000000000022],[null],[],[],[],[],[],[],[],0,127,127,127,1,classic,74,C4I,congruent,,,,,,,,,,,,,,,,,
,,,,,,,,,,,,,,,,,,test2,0,2020-01-01_00h00.00.000,stroop_artemis_2025.2.3,2025.2.4,MacIntel,61.88118812,,,,,,,,,,,,,,,,,,,,,,,,,,,,,,,,,,,,,,,,,,,,,,,,,,,,,,,,,,,,,,,,,,,,,,,,,,,,,,,,,,,,,,,,,,,,,,,,,,,,,,,,,,,,,,,,,,,,,,PINK,hotpink,1.134,215.771,217.018,"[""l""]",[0.5720000000000027],[null],[],[],[],[],[],[],[],0,128,128,128,1,classic,74,C4I,congruent,,,,,,,,,,,,,,,,,
,,,,,,,,,,,,,,,,,,test2,0,2020-01-01_00h00.00.000,stroop_artemis_2025.2.3,2025.2.4,MacIntel,61.88118812,,,,,,,,,,,,,,,,,,,,,,,,,,,,,,,,,,,,,,,,,,,,,,,,,,,,,,,,,,,,,,,,,,,,,,,,,,,,,,,,,,,,,,,,,,,,,,,,,,,,,,,,,,,,,,,,,,,,,,BLUE,saddlebrown,1.05,217.02,218.184,"[""k""]",[0.9560000000000173],[null],[],[],[],[],[],[],[],0,129,129,129,1,classic,74,C4I,incongruent,,,,,,,,,,,,,,,,,
,,,,,,,,,,,,,,,,,,test2,0,2020-01-01_00h00.00.000,stroop_artemis_2025.2.3,2025.2.4,MacIntel,61.88118812,,,,,,,,,,,,,,,,,,,,,,,,,,,,,,,,,,,,,,,,,,,,,,,,,,,,,,,,,,,,,,,,,,,,,,,,,,,,,,,,,,,,,,,,,,,,,,,,,,,,,,,,,,,,,,,,,,,,,,BROWN,hotpink,1.05,218.188,219.345,"[""l""]",[0.8010000000000161],[null],[],[],[],[],[],[],[],0,130,130,130,1,classic,75,I3,incongruent,,,,,,,,,,,,,,,,,
,,,,,,,,,,,,,,,,,,test2,0,2020-01-01_00h00.00.000,stroop_artemis_2025.2.3,2025.2.4,MacIntel,61.88118812,,,,,,,,,,,,,,,,,,,,,,,,,,,,,,,,,,,,,,,,,,,,,,,,,,,,,,,,,,,,,,,,,,,,,,,,,,,,,,,,,,,,,,,,,,,,,,,,,,,,,,,,,,,,,,,,,,,,,,BLUE,hotpink,1,219.35,220.457,"[""l""]",[0.867999999999995],[null],[],[],[],[],[],[],[],0,131,131,131,1,classic,75,I3,incongruent,,,,,,,,,,,,,,,,,
,,,,,,,,,,,,,,,,,,test2,0,2020-01-01_00h00.00.000,stroop_artemis_2025.2.3,2025.2.4,MacIntel,61.88118812,,,,,,,,,,,,,,,,,,,,,,,,,,,,,,,,,,,,,,,,,,,,,,,,,,,,,,,,,,,,,,,,,,,,,,,,,,,,,,,,,,,,,,,,,,,,,,,,,,,,,,,,,,,,,,,,,,,,,,PINK,hotpink,1.1,220.46,221.676,"[""l""]",[0.4679999999999893],[null],[],[],[],[],[],[],[],0,132,132,132,1,classic,76,C6I,congruent,,,,,,,,,,,,,,,,,
,,,,,,,,,,,,,,,,,,test2,0,2020-01-01_00h00.00.000,stroop_artemis_2025.2.3,2025.2.4,MacIntel,61.88118812,,,,,,,,,,,,,,,,,,,,,,,,,,,,,,,,,,,,,,,,,,,,,,,,,,,,,,,,,,,,,,,,,,,,,,,,,,,,,,,,,,,,,,,,,,,,,,,,,,,,,,,,,,,,,,,,,,,,,,BLUE,blue,1.134,221.678,222.924,"[""j""]",[0.6049999999999898],[null],[],[],[],[],[],[],[],0,133,133,133,1,classic,76,C6I,congruent,,,,,,,,,,,,,,,,,
,,,,,,,,,,,,,,,,,,test2,0,2020-01-01_00h00.00.000,stroop_artemis_2025.2.3,2025.2.4,MacIntel,61.88118812,,,,,,,,,,,,,,,,,,,,,,,,,,,,,,,,,,,,,,,,,,,,,,,,,,,,,,,,,,,,,,,,,,,,,,,,,,,,,,,,,,,,,,,,,,,,,,,,,,,,,,,,,,,,,,,,,,,,,,BROWN,saddlebrown,1.2,222.926,224.238,"[""k""]",[0.4399999999999977],[null],[],[],[],[],[],[],[],0,134,134,134,1,classic,76,C6I,congruent,,,,,,,,,,,,,,,,,
,,,,,,,,,,,,,,,,,,test2,0,2020-01-01_00h00.00.000,stroop_artemis_2025.2.3,2025.2.4,MacIntel,61.88118812,,,,,,,,,,,,,,,,,,,,,,,,,,,,,,,,,,,,,,,,,,,,,,,,,,,,,,,,,,,,,,,,,,,,,,,,,,,,,,,,,,,,,,,,,,,,,,,,,,,,,,,,,,,,,,,,,,,,,,BLUE,blue,1.117,224.25,225.468,"[""j""]",[0.9429999999999836],[null],[],[],[],[],[],[],[],0,135,135,135,1,classic,76,C6I,congruent,,,,,,,,,,,,,,,,,
,,,,,,,,,,,,,,,,,,test2,0,2020-01-01_00h00.00.000,stroop_artemis_2025.2.3,2025.2.4,MacIntel,61.88118812,,,,,,,,,,,,,,,,,,,,,,,,,,,,,,,,,,,,,,,,,,,,,,,,,,,,,,,,,,,,,,,,,,,,,,,,,,,,,,,,,,,,,,,,,,,,,,,,,,,,,,,,,,,,,,,,,,,,,,BROWN,saddlebrown,1.067,225.472,226.654,"[""k""]",[0.7270000000000039],[null],[],[],[],[],[],[],[],0,136,136,136,1,classic,76,C6I,congruent,,,,,,,,,,,,,,,,,
,,,,,,,,,,,,,,,,,,test2,0,2020-01-01_00h00.00.000,stroop_artemis_2025.2.3,2025.2.4,MacIntel,61.88118812,,,,,,,,,,,,,,,,,,,,,,,,,,,,,,,,,,,,,,,,,,,,,,,,,,,,,,,,,,,,,,,,,,,,,,,,,,,,,,,,,,,,,,,,,,,,,,,,,,,,,,,,,,,,,,,,,,,,,,PINK,hotpink,1.034,226.656,227.802,"[""l""]",[0.45300000000000296],[null],[],[],[],[],[],[],[],0,137,137,137,1,classic,76,C6I,congruent,,,,,,,,,,,,,,,,,
,,,,,,,,,,,,,,,,,,test2,0,2020-01-01_00h00.00.000,stroop_artemis_2025.2.3,2025.2.4,MacIntel,61.88118812,,,,,,,,,,,,,,,,,,,,,,,,,,,,,,,,,,,,,,,,,,,,,,,,,,,,,,,,,,,,,,,,,,,,,,,,,,,,,,,,,,,,,,,,,,,,,,,,,,,,,,,,,,,,,,,,,,,,,,BROWN,blue,1.15,227.804,229.061,"[""j""]",[0.7369999999999948],[null],[],[],[],[],[],[],[],0,138,138,138,1,classic,76,C6I,incongruent,,,,,,,,,,,,,,,,,
,,,,,,,,,,,,,,,,,,test2,0,2020-01-01_00h00.00.000,stroop_artemis_2025.2.3,2025.2.4,MacIntel,61.88118812,,,,,,,,,,,,,,,,,,,,,,,,,,,,,,,,,,,,,,,,,,,,,,,,,,,,,,,,,,,,,,,,,,,,,,,,,,,,,,,,,,,,,,,,,,,,,,,,,,,,,,,,,,,,,,,,,,,,,,XXXXX,saddlebrown,1.167,229.064,230.343,"[""k""]",[0.7680000000000007],[null],[],[],[],[],[],[],[],0,139,139,139,1,classic,77,N2I,neutral,,,,,,,,,,,,,,,,,
,,,,,,,,,,,,,,,,,,test2,0,2020-01-01_00h00.00.000,stroop_artemis_2025.2.3,2025.2.4,MacIntel,61.88118812,,,,,,,,,,,,,,,,,,,,,,,,,,,,,,,,,,,,,,,,,,,,,,,,,,,,,,,,,,,,,,,,,,,,,,,,,,,,,,,,,,,,,,,,,,,,,,,,,,,,,,,,,,,,,,,,,,,,,,XXX,blue,1.084,230.348,231.537,"[""j""]",[0.5579999999999927],[null],[],[],[],[],[],[],[],0,140,140,140,1,classic,77,N2I,neutral,,,,,,,,,,,,,,,,,
,,,,,,,,,,,,,,,,,,test2,0,2020-01-01_00h00.00.000,stroop_artemis_2025.2.3,2025.2.4,MacIntel,61.88118812,,,,,,,,,,,,,,,,,,,,,,,,,,,,,,,,,,,,,,,,,,,,,,,,,,,,,,,,,,,,,,,,,,,,,,,,,,,,,,,,,,,,,,,,,,,,,,,,,,,,,,,,,,,,,,,,,,,,,,BLUE,hotpink,1.017,231.541,232.671,"[""l""]",[0.6330000000000098],[null],[],[],[],[],[],[],[],0,141,141,141,1,classic,77,N2I,incongruent,,,,,,,,,,,,,,,,,
,,,,,,,,,,,,,,,,,,test2,0,2020-01-01_00h00.00.000,stroop_artemis_2025.2.3,2025.2.4,MacIntel,61.88118812,,,,,,,,,,,,,,,,,,,,,,,,,,,,,,,,,,,,,,,,,,,,,,,,,,,,,,,,,,,,,,,,,,,,,,,,,,,,,,,,,,,,,,,,,,,,,,,,,,,,,,,,,,,,,,,,,,,,,,BROWN,saddlebrown,1.184,232.673,233.962,"[""k""]",[0.5619999999999834],[null],[],[],[],[],[],[],[],0,142,142,142,1,classic,78,C4I,congruent,,,,,,,,,,,,,,,,,
,,,,,,,,,,,,,,,,,,test2,0,2020-01-01_00h00.00.000,stroop_artemis_2025.2.3,2025.2.4,MacIntel,61.88118812,,,,,,,,,,,,,,,,,,,,,,,,,,,,,,,,,,,,,,,,,,,,,,,,,,,,,,,,,,,,,,,,,,,,,,,,,,,,,,,,,,,,,,,,,,,,,,,,,,,,,,,,,,,,,,,,,,,,,,BLUE,blue,1.1,233.963,235.178,"[""j""]",[0.5289999999999964],[null],[],[],[],[],[],[],[],0,143,143,143,1,classic,78,C4I,congruent,,,,,,,,,,,,,,,,,
,,,,,,,,,,,,,,,,,,test2,0,2020-01-01_00h00.00.000,stroop_artemis_2025.2.3,2025.2.4,MacIntel,61.88118812,,,,,,,,,,,,,,,,,,,,,,,,,,,,,,,,,,,,,,,,,,,,,,,,,,,,,,,,,,,,,,,,,,,,,,,,,,,,,,,,,,,,,,,,,,,,,,,,,,,,,,,,,,,,,,,,,,,,,,PINK,hotpink,1.134,235.182,236.418,"[""l""]",[0.5090000000000146],[null],[],[],[],[],[],[],[],0,144,144,144,1,classic,78,C4I,congruent,,,,,,,,,,,,,,,,,
,,,,,,,,,,,,,,,,,,test2,0,2020-01-01_00h00.00.000,stroop_artemis_2025.2.3,2025.2.4,MacIntel,61.88118812,,,,,,,,,,,,,,,,,,,,,,,,,,,,,,,,,,,,,,,,,,,,,,,,,,,,,,,,,,,,,,,,,,,,,,,,,,,,,,,,,,,,,,,,,,,,,,,,,,,,,,,,,,,,,,,,,,,,,,BROWN,saddlebrown,1.084,236.422,237.609,"[""k""]",[0.42799999999999727],[null],[],[],[],[],[],[],[],0,145,145,145,1,classic,78,C4I,congruent,,,,,,,,,,,,,,,,,
,,,,,,,,,,,,,,,,,,test2,0,2020-01-01_00h00.00.000,stroop_artemis_2025.2.3,2025.2.4,MacIntel,61.88118812,,,,,,,,,,,,,,,,,,,,,,,,,,,,,,,,,,,,,,,,,,,,,,,,,,,,,,,,,,,,,,,,,,,,,,,,,,,,,,,,,,,,,,,,,,,,,,,,,,,,,,,,,,,,,,,,,,,,,,BROWN,blue,1.017,237.61,238.743,"[""j""]",[0.47100000000000364],[null],[],[],[],[],[],[],[],0,146,146,146,1,classic,78,C4I,incongruent,,,,,,,,,,,,,,,,,
,,,,,,,,,,,,,,,,,,test2,0,2020-01-01_00h00.00.000,stroop_artemis_2025.2.3,2025.2.4,MacIntel,61.88118812,,,,,,,,,,,,,,,,,,,,,,,,,,,,,,,,,,,,,,,,,,,,,,,,,,,,,,,,,,,,,,,,,,,,,,,,,,,,,,,,,,,,,,,,,,,,,,,,,,,,,,,,,,,,,,,,,,,,,,PINK,hotpink,1.067,238.745,239.923,"[""l""]",[0.3459999999999752],[null],[],[],[],[],[],[],[],0,147,147,147,1,classic,79,C6I,congruent,,,,,,,,,,,,,,,,,
,,,,,,,,,,,,,,,,,,test2,0,2020-01-01_00h00.00.000,stroop_artemis_2025.2.3,2025.2.4,MacIntel,61.88118812,,,,,,,,,,,,,,,,,,,,,,,,,,,,,,,,,,,,,,,,,,,,,,,,,,,,,,,,,,,,,,,,,,,,,,,,,,,,,,,,,,,,,,,,,,,,,,,,,,,,,,,,,,,,,,,,,,,,,,BLUE,blue,1.05,239.925,241.099,"[""j""]",[0.7989999999999782],[null],[],[],[],[],[],[],[],0,148,148,148,1,classic,79,C6I,congruent,,,,,,,,,,,,,,,,,
,,,,,,,,,,,,,,,,,,test2,0,2020-01-01_00h00.00.000,stroop_artemis_2025.2.3,2025.2.4,MacIntel,61.88118812,,,,,,,,,,,,,,,,,,,,,,,,,,,,,,,,,,,,,,,,,,,,,,,,,,,,,,,,,,,,,,,,,,,,,,,,,,,,,,,,,,,,,,,,,,,,,,,,,,,,,,,,,,,,,,,,,,,,,,BROWN,saddlebrown,1,241.103,242.227,"[""k""]",[0.5229999999999961],[null],[],[],[],[],[],[],[],0,149,149,149,1,classic,79,C6I,congruent,,,,,,,,,,,,,,,,,
,,,,,,,,,,,,,,,,,,test2,0,2020-01-01_00h00.00.000,stroop_artemis_2025.2.3,2025.2.4,MacIntel,61.88118812,,,,,,,,,,,,,,,,,,,,,,,,,,,,,,,,,,,,,,,,,,,,,,,,,,,,,,,,,,,,,,,,,,,,,,,,,,,,,,,,,,,,,,,,,,,,,,,,,,,,,,,,,,,,,,,,,,,,,,BLUE,blue,1.167,242.231,243.502,"[""j""]",[0.6229999999999905],[null],[],[],[],[],[],[],[],0,150,150,150,1,classic,79,C6I,congruent,,,,,,,,,,,,,,,,,
,,,,,,,,,,,,,,,,,,test2,0,2020-01-01_00h00.00.000,stroop_artemis_2025.2.3,2025.2.4,MacIntel,61.88118812,,,,,,,,,,,,,,,,,,,,,,,,,,,,,,,,,,,,,,,,,,,,,,,,,,,,,,,,,,,,,,,,,,,,,,,,,,,,,,,,,,,,,,,,,,,,,,,,,,,,,,,,,,,,,,,,,,,,,,PINK,hotpink,1.117,243.503,244.723,"[""l""]",[0.7809999999999775],[null],[],[],[],[],[],[],[],0,151,151,151,1,classic,79,C6I,congruent,,,,,,,,,,,,,,,,,
,,,,,,,,,,,,,,,,,,test2,0,2020-01-01_00h00.00.000,stroop_artemis_2025.2.3,2025.2.4,MacIntel,61.88118812,,,,,,,,,,,,,,,,,,,,,,,,,,,,,,,,,,,,,,,,,,,,,,,,,,,,,,,,,,,,,,,,,,,,,,,,,,,,,,,,,,,,,,,,,,,,,,,,,,,,,,,,,,,,,,,,,,,,,,BLUE,blue,1.2,244.726,246.041,"[""j""]",[0.6149999999999807],[null],[],[],[],[],[],[],[],0,152,152,152,1,classic,79,C6I,congruent,,,,,,,,,,,,,,,,,
,,,,,,,,,,,,,,,,,,test2,0,2020-01-01_00h00.00.000,stroop_artemis_2025.2.3,2025.2.4,MacIntel,61.88118812,,,,,,,,,,,,,,,,,,,,,,,,,,,,,,,,,,,,,,,,,,,,,,,,,,,,,,,,,,,,,,,,,,,,,,,,,,,,,,,,,,,,,,,,,,,,,,,,,,,,,,,,,,,,,,,,,,,,,,PINK,saddlebrown,1.034,246.043,247.181,"[""k""]",[0.6010000000000275],[null],[],[],[],[],[],[],[],0,153,153,153,1,classic,79,C6I,incongruent,,,,,,,,,,,,,,,,,
,,,,,,,,,,,,,,,,,,test2,0,2020-01-01_00h00.00.000,stroop_artemis_2025.2.3,2025.2.4,MacIntel,61.88118812,,,,,,,,,,,,,,,,,,,,,,,,,,,,,,,,,,,,,,,,,,,,,,,,,,,,,,,,,,,,,,,,,,,,,,,,,,,,,,,,,,,,,,,,,,,,,,,,,,,,,,,,,,,,,,,,,,,,,,BLUE,saddlebrown,1.15,247.185,248.449,"[""k""]",[0.5169999999999959],[null],[],[],[],[],[],[],[],0,154,154,154,1,classic,80,I2,incongruent,,,,,,,,,,,,,,,,,
,,,,,,,,,,,,,,,,,,test2,0,2020-01-01_00h00.00.000,stroop_artemis_2025.2.3,2025.2.4,MacIntel,61.88118812,,,,,,,,,,,,,,,,,,,,,,,,,,,,,,,,,,,,,,,,,,,,,,,,,,,,,,,,,,,,,,,,,,,,,,,,,,,,,,,,,,,,,,,,,,,,,,,,,,,,,,,,,,,,,,,,,,,,,,PINK,hotpink,1.184,248.452,249.737,"[""l""]",[0.49099999999998545],[null],[],[],[],[],[],[],[],0,155,155,155,1,classic,81,C2I,congruent,,,,,,,,,,,,,,,,,
,,,,,,,,,,,,,,,,,,test2,0,2020-01-01_00h00.00.000,stroop_artemis_2025.2.3,2025.2.4,MacIntel,61.88118812,,,,,,,,,,,,,,,,,,,,,,,,,,,,,,,,,,,,,,,,,,,,,,,,,,,,,,,,,,,,,,,,,,,,,,,,,,,,,,,,,,,,,,,,,,,,,,,,,,,,,,,,,,,,,,,,,,,,,,BROWN,saddlebrown,1.117,249.739,250.975,"[""k""]",[0.492999999999995],[null],[],[],[],[],[],[],[],0,156,156,156,1,classic,81,C2I,congruent,,,,,,,,,,,,,,,,,
,,,,,,,,,,,,,,,,,,test2,0,2020-01-01_00h00.00.000,stroop_artemis_2025.2.3,2025.2.4,MacIntel,61.88118812,,,,,,,,,,,,,,,,,,,,,,,,,,,,,,,,,,,,,,,,,,,,,,,,,,,,,,,,,,,,,,,,,,,,,,,,,,,,,,,,,,,,,,,,,,,,,,,,,,,,,,,,,,,,,,,,,,,,,,PINK,blue,1.084,250.978,252.171,"[""j""]",[0.8489999999999895],[null],[],[],[],[],[],[],[],0,157,157,157,1,classic,81,C2I,incongruent,,,,,,,,,,,,,,,,,
,,,,,,,,,,,,,,,,,,test2,0,2020-01-01_00h00.00.000,stroop_artemis_2025.2.3,2025.2.4,MacIntel,61.88118812,,,,,,,,,,,,,,,,,,,,,,,,,,,,,,,,,,,,,,,,,,,,,,,,,,,,,,,,,,,,,,,,,,,,,,,,,,,,,,,,,,,,,,,,,,,,,,,,,,,,,,,,,,,,,,,,,,,,,,XXX,blue,1.134,252.175,253.408,"[""j""]",[0.492999999999995],[null],[],[],[],[],[],[],[],0,158,158,158,1,classic,82,N3I,neutral,,,,,,,,,,,,,,,,,
,,,,,,,,,,,,,,,,,,test2,0,2020-01-01_00h00.00.000,stroop_artemis_2025.2.3,2025.2.4,MacIntel,61.88118812,,,,,,,,,,,,,,,,,,,,,,,,,,,,,,,,,,,,,,,,,,,,,,,,,,,,,,,,,,,,,,,,,,,,,,,,,,,,,,,,,,,,,,,,,,,,,,,,,,,,,,,,,,,,,,,,,,,,,,XXXX,hotpink,1.05,253.411,254.569,"[""l""]",[0.5230000000000246],[null],[],[],[],[],[],[],[],0,159,159,159,1,classic,82,N3I,neutral,,,,,,,,,,,,,,,,,
,,,,,,,,,,,,,,,,,,test2,0,2020-01-01_00h00.00.000,stroop_artemis_2025.2.3,2025.2.4,MacIntel,61.88118812,,,,,,,,,,,,,,,,,,,,,,,,,,,,,,,,,,,,,,,,,,,,,,,,,,,,,,,,,,,,,,,,,,,,,,,,,,,,,,,,,,,,,,,,,,,,,,,,,,,,,,,,,,,,,,,,,,,,,,XXXXX,saddlebrown,1.1,254.571,255.799,"[""k""]",[0.39100000000001955],[null],[],[],[],[],[],[],[],0,160,160,160,1,classic,82,N3I,neutral,,,,,,,,,,,,,,,,,
,,,,,,,,,,,,,,,,,,test2,0,2020-01-01_00h00.00.000,stroop_artemis_2025.2.3,2025.2.4,MacIntel,61.88118812,,,,,,,,,,,,,,,,,,,,,,,,,,,,,,,,,,,,,,,,,,,,,,,,,,,,,,,,,,,,,,,,,,,,,,,,,,,,,,,,,,,,,,,,,,,,,,,,,,,,,,,,,,,,,,,,,,,,,,BROWN,hotpink,1.034,255.801,256.937,"[""l""]",[1.0369999999999777],[null],[],[],[],[],[],[],[],0,161,161,161,1,classic,82,N3I,incongruent,,,,,,,,,,,,,,,,,
,,,,,,,,,,,,,,,,,,test2,0,2020-01-01_00h00.00.000,stroop_artemis_2025.2.3,2025.2.4,MacIntel,61.88118812,,,,,,,,,,,,,,,,,,,,,,,,,,,,,,,,,,,,,,,,,,,,,,,,,,,,,,,,,,,,,,,,,,,,,,,,,,,,,,,,,,,,,,,,,,,,,,,,,,,,,,,,,,,,,,,,,,,,,,BROWN,saddlebrown,1.15,256.945,258.211,"[""k""]",[0.5749999999999886],[null],[],[],[],[],[],[],[],0,162,162,162,1,classic,83,C4I,congruent,,,,,,,,,,,,,,,,,
,,,,,,,,,,,,,,,,,,test2,0,2020-01-01_00h00.00.000,stroop_artemis_2025.2.3,2025.2.4,MacIntel,61.88118812,,,,,,,,,,,,,,,,,,,,,,,,,,,,,,,,,,,,,,,,,,,,,,,,,,,,,,,,,,,,,,,,,,,,,,,,,,,,,,,,,,,,,,,,,,,,,,,,,,,,,,,,,,,,,,,,,,,,,,BLUE,blue,1,258.216,259.316,"[""j""]",[0.5079999999999814],[null],[],[],[],[],[],[],[],0,163,163,163,1,classic,83,C4I,congruent,,,,,,,,,,,,,,,,,
,,,,,,,,,,,,,,,,,,test2,0,2020-01-01_00h00.00.000,stroop_artemis_2025.2.3,2025.2.4,MacIntel,61.88118812,,,,,,,,,,,,,,,,,,,,,,,,,,,,,,,,,,,,,,,,,,,,,,,,,,,,,,,,,,,,,,,,,,,,,,,,,,,,,,,,,,,,,,,,,,,,,,,,,,,,,,,,,,,,,,,,,,,,,,PINK,hotpink,1.067,259.318,260.488,"[""l""]",[0.5349999999999682],[null],[],[],[],[],[],[],[],0,164,164,164,1,classic,83,C4I,congruent,,,,,,,,,,,,,,,,,
,,,,,,,,,,,,,,,,,,test2,0,2020-01-01_00h00.00.000,stroop_artemis_2025.2.3,2025.2.4,MacIntel,61.88118812,,,,,,,,,,,,,,,,,,,,,,,,,,,,,,,,,,,,,,,,,,,,,,,,,,,,,,,,,,,,,,,,,,,,,,,,,,,,,,,,,,,,,,,,,,,,,,,,,,,,,,,,,,,,,,,,,,,,,,BLUE,blue,1.184,260.49,261.778,"[""j""]",[0.5310000000000059],[null],[],[],[],[],[],[],[],0,165,165,165,1,classic,83,C4I,congruent,,,,,,,,,,,,,,,,,
,,,,,,,,,,,,,,,,,,test2,0,2020-01-01_00h00.00.000,stroop_artemis_2025.2.3,2025.2.4,MacIntel,61.88118812,,,,,,,,,,,,,,,,,,,,,,,,,,,,,,,,,,,,,,,,,,,,,,,,,,,,,,,,,,,,,,,,,,,,,,,,,,,,,,,,,,,,,,,,,,,,,,,,,,,,,,,,,,,,,,,,,,,,,,PINK,saddlebrown,1.167,261.781,263.053,"[""k""]",[0.7659999999999627],[null],[],[],[],[],[],[],[],0,166,166,166,1,classic,83,C4I,incongruent,,,,,,,,,,,,,,,,,
,,,,,,,,,,,,,,,,,,test2,0,2020-01-01_00h00.00.000,stroop_artemis_2025.2.3,2025.2.4,MacIntel,61.88118812,,,,,,,,,,,,,,,,,,,,,,,,,,,,,,,,,,,,,,,,,,,,,,,,,,,,,,,,,,,,,,,,,,,,,,,,,,,,,,,,,,,,,,,,,,,,,,,,,,,,,,,,,,,,,,,,,,,,,,PINK,blue,1.017,263.056,264.191,"[""j""]",[0.7740000000000009],[null],[],[],[],[],[],[],[],0,167,167,167,1,classic,84,I3,incongruent,,,,,,,,,,,,,,,,,
,,,,,,,,,,,,,,,,,,test2,0,2020-01-01_00h00.00.000,stroop_artemis_2025.2.3,2025.2.4,MacIntel,61.88118812,,,,,,,,,,,,,,,,,,,,,,,,,,,,,,,,,,,,,,,,,,,,,,,,,,,,,,,,,,,,,,,,,,,,,,,,,,,,,,,,,,,,,,,,,,,,,,,,,,,,,,,,,,,,,,,,,,,,,,BROWN,blue,1.2,264.193,265.504,"[""j""]",[0.8909999999999627],[null],[],[],[],[],[],[],[],0,168,168,168,1,classic,84,I3,incongruent,,,,,,,,,,,,,,,,,
,,,,,,,,,,,,,,,,,,test2,0,2020-01-01_00h00.00.000,stroop_artemis_2025.2.3,2025.2.4,MacIntel,61.88118812,,,,,,,,,,,,,,,,,,,,,,,,,,,,,,,,,,,,,,,,,,,,,,,,,,,,,,,,,,,,,,,,,,,,,,,,,,,,,,,,,,,,,,,,,,,,,,,,,,,,,,,,,,,,,,,,,,,,,,BROWN,saddlebrown,1.184,265.505,266.794,"[""k""]",[0.5279999999999632],[null],[],[],[],[],[],[],[],0,169,169,169,1,classic,85,C4I,congruent,,,,,,,,,,,,,,,,,
,,,,,,,,,,,,,,,,,,test2,0,2020-01-01_00h00.00.000,stroop_artemis_2025.2.3,2025.2.4,MacIntel,61.88118812,,,,,,,,,,,,,,,,,,,,,,,,,,,,,,,,,,,,,,,,,,,,,,,,,,,,,,,,,,,,,,,,,,,,,,,,,,,,,,,,,,,,,,,,,,,,,,,,,,,,,,,,,,,,,,,,,,,,,,PINK,hotpink,1.2,266.797,268.117,"[""l""]",[0.5149999999999864],[null],[],[],[],[],[],[],[],0,170,170,170,1,classic,85,C4I,congruent,,,,,,,,,,,,,,,,,
,,,,,,,,,,,,,,,,,,test2,0,2020-01-01_00h00.00.000,stroop_artemis_2025.2.3,2025.2.4,MacIntel,61.88118812,,,,,,,,,,,,,,,,,,,,,,,,,,,,,,,,,,,,,,,,,,,,,,,,,,,,,,,,,,,,,,,,,,,,,,,,,,,,,,,,,,,,,,,,,,,,,,,,,,,,,,,,,,,,,,,,,,,,,,BROWN,saddlebrown,1.017,268.121,269.253,"[""k""]",[0.55499999999995],[null],[],[],[],[],[],[],[],0,171,171,171,1,classic,85,C4I,congruent,,,,,,,,,,,,,,,,,
,,,,,,,,,,,,,,,,,,test2,0,2020-01-01_00h00.00.000,stroop_artemis_2025.2.3,2025.2.4,MacIntel,61.88118812,,,,,,,,,,,,,,,,,,,,,,,,,,,,,,,,,,,,,,,,,,,,,,,,,,,,,,,,,,,,,,,,,,,,,,,,,,,,,,,,,,,,,,,,,,,,,,,,,,,,,,,,,,,,,,,,,,,,,,PINK,hotpink,1.084,269.256,270.456,"[""k""]",[0.46800000000001774],[null],[],[],[],[],[],[],[],0,172,172,172,1,classic,85,C4I,congruent,,,,,,,,,,,,,,,,,
,,,,,,,,,,,,,,,,,,test2,0,2020-01-01_00h00.00.000,stroop_artemis_2025.2.3,2025.2.4,MacIntel,61.88118812,,,,,,,,,,,,,,,,,,,,,,,,,,,,,,,,,,,,,,,,,,,,,,,,,,,,,,,,,,,,,,,,,,,,,,,,,,,,,,,,,,,,,,,,,,,,,,,,,,,,,,,,,,,,,,,,,,,,,,BROWN,hotpink,1.117,270.46,271.686,"[""l""]",[0.6499999999999773],[null],[],[],[],[],[],[],[],0,173,173,173,1,classic,85,C4I,incongruent,,,,,,,,,,,,,,,,,
,,,,,,,,,,,,,,,,,,test2,0,2020-01-01_00h00.00.000,stroop_artemis_2025.2.3,2025.2.4,MacIntel,61.88118812,,,,,,,,,,,,,,,,,,,,,,,,,,,,,,,,,,,,,,,,,,,,,,,,,,,,,,,,,,,,,,,,,,,,,,,,,,,,,,,,,,,,,,,,,,,,,,,,,,,,,,,,,,,,,,,,,,,,,,BLUE,blue,1.05,271.689,272.864,"[""j""]",[0.9979999999999905],[null],[],[],[],[],[],[],[],0,174,174,174,1,classic,86,C2I,congruent,,,,,,,,,,,,,,,,,
,,,,,,,,,,,,,,,,,,test2,0,2020-01-01_00h00.00.000,stroop_artemis_2025.2.3,2025.2.4,MacIntel,61.88118812,,,,,,,,,,,,,,,,,,,,,,,,,,,,,,,,,,,,,,,,,,,,,,,,,,,,,,,,,,,,,,,,,,,,,,,,,,,,,,,,,,,,,,,,,,,,,,,,,,,,,,,,,,,,,,,,,,,,,,PINK,hotpink,1.067,272.866,274.054,"[""l""]",[0.5400000000000205],[null],[],[],[],[],[],[],[],0,175,175,175,1,classic,86,C2I,congruent,,,,,,,,,,,,,,,,,
,,,,,,,,,,,,,,,,,,test2,0,2020-01-01_00h00.00.000,stroop_artemis_2025.2.3,2025.2.4,MacIntel,61.88118812,,,,,,,,,,,,,,,,,,,,,,,,,,,,,,,,,,,,,,,,,,,,,,,,,,,,,,,,,,,,,,,,,,,,,,,,,,,,,,,,,,,,,,,,,,,,,,,,,,,,,,,,,,,,,,,,,,,,,,BLUE,hotpink,1.134,274.058,275.294,"[""l""]",[0.6850000000000023],[null],[],[],[],[],[],[],[],0,176,176,176,1,classic,86,C2I,incongruent,,,,,,,,,,,,,,,,,
,,,,,,,,,,,,,,,,,,test2,0,2020-01-01_00h00.00.000,stroop_artemis_2025.2.3,2025.2.4,MacIntel,61.88118812,,,,,,,,,,,,,,,,,,,,,,,,,,,,,,,,,,,,,,,,,,,,,,,,,,,,,,,,,,,,,,,,,,,,,,,,,,,,,,,,,,,,,,,,,,,,,,,,,,,,,,,,,,,,,,,,,,,,,,,,,,,,,,,,,,,,,,,,,,,,,,,,275.295,290.293,290.293,291.487,0,0,0,1,1,classic,conditions_classic2.xlsx,"slice(272,367)","""272:367""",,
,,,,,,,,,,,,,,,,,,test2,0,2020-01-01_00h00.00.000,stroop_artemis_2025.2.3,2025.2.4,MacIntel,61.88118812,,,,,,,,,,,,,,,,,,,,,,,,,,,,,,,,,,,,,,,,,,,,,,,,,,,,,,,,,,,,,,,,,,,,,,,,,,,,,,,,,,,,,,,,,,,,,,,,,,,,,,,,,,,,,,,,,,,,,,BLUE,blue,1.034,291.542,292.678,,,,[],[],[],[],[],[],[],0,0,0,0,1,classic,1,C7I,congruent,,,,,,,,,,,,,,,,,
,,,,,,,,,,,,,,,,,,test2,0,2020-01-01_00h00.00.000,stroop_artemis_2025.2.3,2025.2.4,MacIntel,61.88118812,,,,,,,,,,,,,,,,,,,,,,,,,,,,,,,,,,,,,,,,,,,,,,,,,,,,,,,,,,,,,,,,,,,,,,,,,,,,,,,,,,,,,,,,,,,,,,,,,,,,,,,,,,,,,,,,,,,,,,BROWN,saddlebrown,1,292.681,293.786,"[""k""]",[0.5819999999999936],[null],[],[],[],[],[],[],[],0,1,1,1,1,classic,1,C7I,congruent,,,,,,,,,,,,,,,,,
,,,,,,,,,,,,,,,,,,test2,0,2020-01-01_00h00.00.000,stroop_artemis_2025.2.3,2025.2.4,MacIntel,61.88118812,,,,,,,,,,,,,,,,,,,,,,,,,,,,,,,,,,,,,,,,,,,,,,,,,,,,,,,,,,,,,,,,,,,,,,,,,,,,,,,,,,,,,,,,,,,,,,,,,,,,,,,,,,,,,,,,,,,,,,PINK,hotpink,1.15,293.788,295.06,"[""l""]",[0.632000000000005],[null],[],[],[],[],[],[],[],0,2,2,2,1,classic,1,C7I,congruent,,,,,,,,,,,,,,,,,
,,,,,,,,,,,,,,,,,,test2,0,2020-01-01_00h00.00.000,stroop_artemis_2025.2.3,2025.2.4,MacIntel,61.88118812,,,,,,,,,,,,,,,,,,,,,,,,,,,,,,,,,,,,,,,,,,,,,,,,,,,,,,,,,,,,,,,,,,,,,,,,,,,,,,,,,,,,,,,,,,,,,,,,,,,,,,,,,,,,,,,,,,,,,,BLUE,blue,1.167,295.064,296.336,"[""j""]",[0.5090000000000146],[null],[],[],[],[],[],[],[],0,3,3,3,1,classic,1,C7I,congruent,,,,,,,,,,,,,,,,,
,,,,,,,,,,,,,,,,,,test2,0,2020-01-01_00h00.00.000,stroop_artemis_2025.2.3,2025.2.4,MacIntel,61.88118812,,,,,,,,,,,,,,,,,,,,,,,,,,,,,,,,,,,,,,,,,,,,,,,,,,,,,,,,,,,,,,,,,,,,,,,,,,,,,,,,,,,,,,,,,,,,,,,,,,,,,,,,,,,,,,,,,,,,,,BROWN,saddlebrown,1.1,296.339,297.546,"[""k""]",[0.4230000000000018],[null],[],[],[],[],[],[],[],0,4,4,4,1,classic,1,C7I,congruent,,,,,,,,,,,,,,,,,
,,,,,,,,,,,,,,,,,,test2,0,2020-01-01_00h00.00.000,stroop_artemis_2025.2.3,2025.2.4,MacIntel,61.88118812,,,,,,,,,,,,,,,,,,,,,,,,,,,,,,,,,,,,,,,,,,,,,,,,,,,,,,,,,,,,,,,,,,,,,,,,,,,,,,,,,,,,,,,,,,,,,,,,,,,,,,,,,,,,,,,,,,,,,,BLUE,blue,1.15,297.548,298.816,"[""j""]",[0.5179999999999723],[null],[],[],[],[],[],[],[],0,5,5,5,1,classic,1,C7I,congruent,,,,,,,,,,,,,,,,,
,,,,,,,,,,,,,,,,,,test2,0,2020-01-01_00h00.00.000,stroop_artemis_2025.2.3,2025.2.4,MacIntel,61.88118812,,,,,,,,,,,,,,,,,,,,,,,,,,,,,,,,,,,,,,,,,,,,,,,,,,,,,,,,,,,,,,,,,,,,,,,,,,,,,,,,,,,,,,,,,,,,,,,,,,,,,,,,,,,,,,,,,,,,,,BROWN,saddlebrown,1.2,298.82,300.129,"[""k""]",[0.45699999999999363],[null],[],[],[],[],[],[],[],0,6,6,6,1,classic,1,C7I,congruent,,,,,,,,,,,,,,,,,
,,,,,,,,,,,,,,,,,,test2,0,2020-01-01_00h00.00.000,stroop_artemis_2025.2.3,2025.2.4,MacIntel,61.88118812,,,,,,,,,,,,,,,,,,,,,,,,,,,,,,,,,,,,,,,,,,,,,,,,,,,,,,,,,,,,,,,,,,,,,,,,,,,,,,,,,,,,,,,,,,,,,,,,,,,,,,,,,,,,,,,,,,,,,,BLUE,saddlebrown,1.084,300.136,301.331,"[""k""]",[0.8470000000000368],[null],[],[],[],[],[],[],[],0,7,7,7,1,classic,1,C7I,incongruent,,,,,,,,,,,,,,,,,
,,,,,,,,,,,,,,,,,,test2,0,2020-01-01_00h00.00.000,stroop_artemis_2025.2.3,2025.2.4,MacIntel,61.88118812,,,,,,,,,,,,,,,,,,,,,,,,,,,,,,,,,,,,,,,,,,,,,,,,,,,,,,,,,,,,,,,,,,,,,,,,,,,,,,,,,,,,,,,,,,,,,,,,,,,,,,,,,,,,,,,,,,,,,,XXX,blue,1.134,301.333,302.574,"[""j""]",[0.632000000000005],[null],[],[],[],[],[],[],[],0,8,8,8,1,classic,2,NI,neutral,,,,,,,,,,,,,,,,,
,,,,,,,,,,,,,,,,,,test2,0,2020-01-01_00h00.00.000,stroop_artemis_2025.2.3,2025.2.4,MacIntel,61.88118812,,,,,,,,,,,,,,,,,,,,,,,,,,,,,,,,,,,,,,,,,,,,,,,,,,,,,,,,,,,,,,,,,,,,,,,,,,,,,,,,,,,,,,,,,,,,,,,,,,,,,,,,,,,,,,,,,,,,,,BROWN,hotpink,1.184,302.576,303.873,"[""l""]",[0.68100000000004],[null],[],[],[],[],[],[],[],0,9,9,9,1,classic,2,NI,incongruent,,,,,,,,,,,,,,,,,
,,,,,,,,,,,,,,,,,,test2,0,2020-01-01_00h00.00.000,stroop_artemis_2025.2.3,2025.2.4,MacIntel,61.88118812,,,,,,,,,,,,,,,,,,,,,,,,,,,,,,,,,,,,,,,,,,,,,,,,,,,,,,,,,,,,,,,,,,,,,,,,,,,,,,,,,,,,,,,,,,,,,,,,,,,,,,,,,,,,,,,,,,,,,,PINK,hotpink,1.05,303.876,305.045,"[""l""]",[0.3860000000000241],[null],[],[],[],[],[],[],[],0,10,10,10,1,classic,3,C2I,congruent,,,,,,,,,,,,,,,,,
,,,,,,,,,,,,,,,,,,test2,0,2020-01-01_00h00.00.000,stroop_artemis_2025.2.3,2025.2.4,MacIntel,61.88118812,,,,,,,,,,,,,,,,,,,,,,,,,,,,,,,,,,,,,,,,,,,,,,,,,,,,,,,,,,,,,,,,,,,,,,,,,,,,,,,,,,,,,,,,,,,,,,,,,,,,,,,,,,,,,,,,,,,,,,BROWN,saddlebrown,1.067,305.048,306.229,"[""k""]",[0.45799999999997],[null],[],[],[],[],[],[],[],0,11,11,11,1,classic,3,C2I,congruent,,,,,,,,,,,,,,,,,
,,,,,,,,,,,,,,,,,,test2,0,2020-01-01_00h00.00.000,stroop_artemis_2025.2.3,2025.2.4,MacIntel,61.88118812,,,,,,,,,,,,,,,,,,,,,,,,,,,,,,,,,,,,,,,,,,,,,,,,,,,,,,,,,,,,,,,,,,,,,,,,,,,,,,,,,,,,,,,,,,,,,,,,,,,,,,,,,,,,,,,,,,,,,,PINK,blue,1.1,306.231,307.451,"[""j""]",[0.7230000000000132],[null],[],[],[],[],[],[],[],0,12,12,12,1,classic,3,C2I,incongruent,,,,,,,,,,,,,,,,,
,,,,,,,,,,,,,,,,,,test2,0,2020-01-01_00h00.00.000,stroop_artemis_2025.2.3,2025.2.4,MacIntel,61.88118812,,,,,,,,,,,,,,,,,,,,,,,,,,,,,,,,,,,,,,,,,,,,,,,,,,,,,,,,,,,,,,,,,,,,,,,,,,,,,,,,,,,,,,,,,,,,,,,,,,,,,,,,,,,,,,,,,,,,,,PINK,hotpink,1.117,307.452,308.678,"[""l""]",[0.561999999999955],[null],[],[],[],[],[],[],[],0,13,13,13,1,classic,4,C3I,congruent,,,,,,,,,,,,,,,,,
,,,,,,,,,,,,,,,,,,test2,0,2020-01-01_00h00.00.000,stroop_artemis_2025.2.3,2025.2.4,MacIntel,61.88118812,,,,,,,,,,,,,,,,,,,,,,,,,,,,,,,,,,,,,,,,,,,,,,,,,,,,,,,,,,,,,,,,,,,,,,,,,,,,,,,,,,,,,,,,,,,,,,,,,,,,,,,,,,,,,,,,,,,,,,BLUE,blue,1.017,308.679,309.801,"[""j""]",[0.6059999999999945],[null],[],[],[],[],[],[],[],0,14,14,14,1,classic,4,C3I,congruent,,,,,,,,,,,,,,,,,
,,,,,,,,,,,,,,,,,,test2,0,2020-01-01_00h00.00.000,stroop_artemis_2025.2.3,2025.2.4,MacIntel,61.88118812,,,,,,,,,,,,,,,,,,,,,,,,,,,,,,,,,,,,,,,,,,,,,,,,,,,,,,,,,,,,,,,,,,,,,,,,,,,,,,,,,,,,,,,,,,,,,,,,,,,,,,,,,,,,,,,,,,,,,,BROWN,saddlebrown,1.167,309.808,311.082,"[""k""]",[0.5459999999999923],[null],[],[],[],[],[],[],[],0,15,15,15,1,classic,4,C3I,congruent,,,,,,,,,,,,,,,,,
,,,,,,,,,,,,,,,,,,test2,0,2020-01-01_00h00.00.000,stroop_artemis_2025.2.3,2025.2.4,MacIntel,61.88118812,,,,,,,,,,,,,,,,,,,,,,,,,,,,,,,,,,,,,,,,,,,,,,,,,,,,,,,,,,,,,,,,,,,,,,,,,,,,,,,,,,,,,,,,,,,,,,,,,,,,,,,,,,,,,,,,,,,,,,BLUE,hotpink,1,311.084,312.193,"[""l""]",[0.5639999999999645],[null],[],[],[],[],[],[],[],0,16,16,16,1,classic,4,C3I,incongruent,,,,,,,,,,,,,,,,,
,,,,,,,,,,,,,,,,,,test2,0,2020-01-01_00h00.00.000,stroop_artemis_2025.2.3,2025.2.4,MacIntel,61.88118812,,,,,,,,,,,,,,,,,,,,,,,,,,,,,,,,,,,,,,,,,,,,,,,,,,,,,,,,,,,,,,,,,,,,,,,,,,,,,,,,,,,,,,,,,,,,,,,,,,,,,,,,,,,,,,,,,,,,,,PINK,hotpink,1.034,312.195,313.345,"[""l""]",[0.4600000000000364],[null],[],[],[],[],[],[],[],0,17,17,17,1,classic,5,CI,congruent,,,,,,,,,,,,,,,,,
,,,,,,,,,,,,,,,,,,test2,0,2020-01-01_00h00.00.000,stroop_artemis_2025.2.3,2025.2.4,MacIntel,61.88118812,,,,,,,,,,,,,,,,,,,,,,,,,,,,,,,,,,,,,,,,,,,,,,,,,,,,,,,,,,,,,,,,,,,,,,,,,,,,,,,,,,,,,,,,,,,,,,,,,,,,,,,,,,,,,,,,,,,,,,BROWN,blue,1.1,313.347,314.563,"[""j""]",[0.7180000000000177],[null],[],[],[],[],[],[],[],0,18,18,18,1,classic,5,CI,incongruent,,,,,,,,,,,,,,,,,
,,,,,,,,,,,,,,,,,,test2,0,2020-01-01_00h00.00.000,stroop_artemis_2025.2.3,2025.2.4,MacIntel,61.88118812,,,,,,,,,,,,,,,,,,,,,,,,,,,,,,,,,,,,,,,,,,,,,,,,,,,,,,,,,,,,,,,,,,,,,,,,,,,,,,,,,,,,,,,,,,,,,,,,,,,,,,,,,,,,,,,,,,,,,,XXXXX,saddlebrown,1.117,314.569,315.798,"[""k""]",[0.4889999999999759],[null],[],[],[],[],[],[],[],0,19,19,19,1,classic,6,N2I,neutral,,,,,,,,,,,,,,,,,
,,,,,,,,,,,,,,,,,,test2,0,2020-01-01_00h00.00.000,stroop_artemis_2025.2.3,2025.2.4,MacIntel,61.88118812,,,,,,,,,,,,,,,,,,,,,,,,,,,,,,,,,,,,,,,,,,,,,,,,,,,,,,,,,,,,,,,,,,,,,,,,,,,,,,,,,,,,,,,,,,,,,,,,,,,,,,,,,,,,,,,,,,,,,,XXXX,hotpink,1.084,315.8,316.995,"[""l""]",[0.5749999999999886],[null],[],[],[],[],[],[],[],0,20,20,20,1,classic,6,N2I,neutral,,,,,,,,,,,,,,,,,
,,,,,,,,,,,,,,,,,,test2,0,2020-01-01_00h00.00.000,stroop_artemis_2025.2.3,2025.2.4,MacIntel,61.88118812,,,,,,,,,,,,,,,,,,,,,,,,,,,,,,,,,,,,,,,,,,,,,,,,,,,,,,,,,,,,,,,,,,,,,,,,,,,,,,,,,,,,,,,,,,,,,,,,,,,,,,,,,,,,,,,,,,,,,,BLUE,saddlebrown,1.034,316.997,318.141,"[""k""]",[0.7119999999999891],[null],[],[],[],[],[],[],[],0,21,21,21,1,classic,6,N2I,incongruent,,,,,,,,,,,,,,,,,
,,,,,,,,,,,,,,,,,,test2,0,2020-01-01_00h00.00.000,stroop_artemis_2025.2.3,2025.2.4,MacIntel,61.88118812,,,,,,,,,,,,,,,,,,,,,,,,,,,,,,,,,,,,,,,,,,,,,,,,,,,,,,,,,,,,,,,,,,,,,,,,,,,,,,,,,,,,,,,,,,,,,,,,,,,,,,,,,,,,,,,,,,,,,,BLUE,blue,1.067,318.141,319.31,"[""j""]",[0.5679999999999836],[null],[],[],[],[],[],[],[],0,22,22,22,1,classic,7,C7I,congruent,,,,,,,,,,,,,,,,,
,,,,,,,,,,,,,,,,,,test2,0,2020-01-01_00h00.00.000,stroop_artemis_2025.2.3,2025.2.4,MacIntel,61.88118812,,,,,,,,,,,,,,,,,,,,,,,,,,,,,,,,,,,,,,,,,,,,,,,,,,,,,,,,,,,,,,,,,,,,,,,,,,,,,,,,,,,,,,,,,,,,,,,,,,,,,,,,,,,,,,,,,,,,,,BROWN,saddlebrown,1.167,319.312,320.595,"[""k""]",[0.43600000000003547],[null],[],[],[],[],[],[],[],0,23,23,23,1,classic,7,C7I,congruent,,,,,,,,,,,,,,,,,
,,,,,,,,,,,,,,,,,,test2,0,2020-01-01_00h00.00.000,stroop_artemis_2025.2.3,2025.2.4,MacIntel,61.88118812,,,,,,,,,,,,,,,,,,,,,,,,,,,,,,,,,,,,,,,,,,,,,,,,,,,,,,,,,,,,,,,,,,,,,,,,,,,,,,,,,,,,,,,,,,,,,,,,,,,,,,,,,,,,,,,,,,,,,,BLUE,blue,1.017,320.605,321.718,"[""j""]",[0.5360000000000014],[null],[],[],[],[],[],[],[],0,24,24,24,1,classic,7,C7I,congruent,,,,,,,,,,,,,,,,,
,,,,,,,,,,,,,,,,,,test2,0,2020-01-01_00h00.00.000,stroop_artemis_2025.2.3,2025.2.4,MacIntel,61.88118812,,,,,,,,,,,,,,,,,,,,,,,,,,,,,,,,,,,,,,,,,,,,,,,,,,,,,,,,,,,,,,,,,,,,,,,,,,,,,,,,,,,,,,,,,,,,,,,,,,,,,,,,,,,,,,,,,,,,,,PINK,hotpink,1.184,321.721,323.015,"[""l""]",[0.4900000000000091],[null],[],[],[],[],[],[],[],0,25,25,25,1,classic,7,C7I,congruent,,,,,,,,,,,,,,,,,
,,,,,,,,,,,,,,,,,,test2,0,2020-01-01_00h00.00.000,stroop_artemis_2025.2.3,2025.2.4,MacIntel,61.88118812,,,,,,,,,,,,,,,,,,,,,,,,,,,,,,,,,,,,,,,,,,,,,,,,,,,,,,,,,,,,,,,,,,,,,,,,,,,,,,,,,,,,,,,,,,,,,,,,,,,,,,,,,,,,,,,,,,,,,,BLUE,blue,1.05,323.018,324.179,"[""j""]",[0.5730000000000359],[null],[],[],[],[],[],[],[],0,26,26,26,1,classic,7,C7I,congruent,,,,,,,,,,,,,,,,,
,,,,,,,,,,,,,,,,,,test2,0,2020-01-01_00h00.00.000,stroop_artemis_2025.2.3,2025.2.4,MacIntel,61.88118812,,,,,,,,,,,,,,,,,,,,,,,,,,,,,,,,,,,,,,,,,,,,,,,,,,,,,,,,,,,,,,,,,,,,,,,,,,,,,,,,,,,,,,,,,,,,,,,,,,,,,,,,,,,,,,,,,,,,,,PINK,hotpink,1.2,324.181,325.499,,,,[],[],[],[],[],[],[],0,27,27,27,1,classic,7,C7I,congruent,,,,,,,,,,,,,,,,,
,,,,,,,,,,,,,,,,,,test2,0,2020-01-01_00h00.00.000,stroop_artemis_2025.2.3,2025.2.4,MacIntel,61.88118812,,,,,,,,,,,,,,,,,,,,,,,,,,,,,,,,,,,,,,,,,,,,,,,,,,,,,,,,,,,,,,,,,,,,,,,,,,,,,,,,,,,,,,,,,,,,,,,,,,,,,,,,,,,,,,,,,,,,,,BROWN,saddlebrown,1.134,325.504,326.747,"[""j"",""k""]","[0.05299999999999727,0.6700000000000159]","[null,null]",[],[],[],[],[],[],[],0,28,28,28,1,classic,7,C7I,congruent,,,,,,,,,,,,,,,,,
,,,,,,,,,,,,,,,,,,test2,0,2020-01-01_00h00.00.000,stroop_artemis_2025.2.3,2025.2.4,MacIntel,61.88118812,,,,,,,,,,,,,,,,,,,,,,,,,,,,,,,,,,,,,,,,,,,,,,,,,,,,,,,,,,,,,,,,,,,,,,,,,,,,,,,,,,,,,,,,,,,,,,,,,,,,,,,,,,,,,,,,,,,,,,PINK,saddlebrown,1,326.75,327.862,"[""k""]",[0.6929999999999836],[null],[],[],[],[],[],[],[],0,29,29,29,1,classic,7,C7I,incongruent,,,,,,,,,,,,,,,,,
,,,,,,,,,,,,,,,,,,test2,0,2020-01-01_00h00.00.000,stroop_artemis_2025.2.3,2025.2.4,MacIntel,61.88118812,,,,,,,,,,,,,,,,,,,,,,,,,,,,,,,,,,,,,,,,,,,,,,,,,,,,,,,,,,,,,,,,,,,,,,,,,,,,,,,,,,,,,,,,,,,,,,,,,,,,,,,,,,,,,,,,,,,,,,BROWN,hotpink,1.15,327.864,329.124,"[""l""]",[0.6930000000000405],[null],[],[],[],[],[],[],[],0,30,30,30,1,classic,8,I4,incongruent,,,,,,,,,,,,,,,,,
,,,,,,,,,,,,,,,,,,test2,0,2020-01-01_00h00.00.000,stroop_artemis_2025.2.3,2025.2.4,MacIntel,61.88118812,,,,,,,,,,,,,,,,,,,,,,,,,,,,,,,,,,,,,,,,,,,,,,,,,,,,,,,,,,,,,,,,,,,,,,,,,,,,,,,,,,,,,,,,,,,,,,,,,,,,,,,,,,,,,,,,,,,,,,PINK,saddlebrown,1.034,329.126,330.265,"[""k""]",[0.7390000000000327],[null],[],[],[],[],[],[],[],0,31,31,31,1,classic,8,I4,incongruent,,,,,,,,,,,,,,,,,
,,,,,,,,,,,,,,,,,,test2,0,2020-01-01_00h00.00.000,stroop_artemis_2025.2.3,2025.2.4,MacIntel,61.88118812,,,,,,,,,,,,,,,,,,,,,,,,,,,,,,,,,,,,,,,,,,,,,,,,,,,,,,,,,,,,,,,,,,,,,,,,,,,,,,,,,,,,,,,,,,,,,,,,,,,,,,,,,,,,,,,,,,,,,,BROWN,blue,1.184,330.267,331.556,"[""j""]",[0.61099999999999],[null],[],[],[],[],[],[],[],0,32,32,32,1,classic,8,I4,incongruent,,,,,,,,,,,,,,,,,
,,,,,,,,,,,,,,,,,,test2,0,2020-01-01_00h00.00.000,stroop_artemis_2025.2.3,2025.2.4,MacIntel,61.88118812,,,,,,,,,,,,,,,,,,,,,,,,,,,,,,,,,,,,,,,,,,,,,,,,,,,,,,,,,,,,,,,,,,,,,,,,,,,,,,,,,,,,,,,,,,,,,,,,,,,,,,,,,,,,,,,,,,,,,,PINK,hotpink,1.2,331.562,332.868,"[""l""]",[0.9340000000000259],[null],[],[],[],[],[],[],[],0,33,33,33,1,classic,9,C5I,congruent,,,,,,,,,,,,,,,,,
,,,,,,,,,,,,,,,,,,test2,0,2020-01-01_00h00.00.000,stroop_artemis_2025.2.3,2025.2.4,MacIntel,61.88118812,,,,,,,,,,,,,,,,,,,,,,,,,,,,,,,,,,,,,,,,,,,,,,,,,,,,,,,,,,,,,,,,,,,,,,,,,,,,,,,,,,,,,,,,,,,,,,,,,,,,,,,,,,,,,,,,,,,,,,BLUE,blue,1,332.87,333.976,"[""j""]",[0.625],[null],[],[],[],[],[],[],[],0,34,34,34,1,classic,9,C5I,congruent,,,,,,,,,,,,,,,,,
,,,,,,,,,,,,,,,,,,test2,0,2020-01-01_00h00.00.000,stroop_artemis_2025.2.3,2025.2.4,MacIntel,61.88118812,,,,,,,,,,,,,,,,,,,,,,,,,,,,,,,,,,,,,,,,,,,,,,,,,,,,,,,,,,,,,,,,,,,,,,,,,,,,,,,,,,,,,,,,,,,,,,,,,,,,,,,,,,,,,,,,,,,,,,BROWN,saddlebrown,1.15,333.981,335.245,"[""k""]",[0.48799999999999955],[null],[],[],[],[],[],[],[],0,35,35,35,1,classic,9,C5I,congruent,,,,,,,,,,,,,,,,,
,,,,,,,,,,,,,,,,,,test2,0,2020-01-01_00h00.00.000,stroop_artemis_2025.2.3,2025.2.4,MacIntel,61.88118812,,,,,,,,,,,,,,,,,,,,,,,,,,,,,,,,,,,,,,,,,,,,,,,,,,,,,,,,,,,,,,,,,,,,,,,,,,,,,,,,,,,,,,,,,,,,,,,,,,,,,,,,,,,,,,,,,,,,,,PINK,hotpink,1.1,335.246,336.454,"[""l""]",[0.6209999999999809],[null],[],[],[],[],[],[],[],0,36,36,36,1,classic,9,C5I,congruent,,,,,,,,,,,,,,,,,
,,,,,,,,,,,,,,,,,,test2,0,2020-01-01_00h00.00.000,stroop_artemis_2025.2.3,2025.2.4,MacIntel,61.88118812,,,,,,,,,,,,,,,,,,,,,,,,,,,,,,,,,,,,,,,,,,,,,,,,,,,,,,,,,,,,,,,,,,,,,,,,,,,,,,,,,,,,,,,,,,,,,,,,,,,,,,,,,,,,,,,,,,,,,,BLUE,blue,1.084,336.461,337.651,"[""j""]",[0.5879999999999654],[null],[],[],[],[],[],[],[],0,37,37,37,1,classic,9,C5I,congruent,,,,,,,,,,,,,,,,,
,,,,,,,,,,,,,,,,,,test2,0,2020-01-01_00h00.00.000,stroop_artemis_2025.2.3,2025.2.4,MacIntel,61.88118812,,,,,,,,,,,,,,,,,,,,,,,,,,,,,,,,,,,,,,,,,,,,,,,,,,,,,,,,,,,,,,,,,,,,,,,,,,,,,,,,,,,,,,,,,,,,,,,,,,,,,,,,,,,,,,,,,,,,,,PINK,blue,1.017,337.655,338.778,"[""j""]",[0.5369999999999777],[null],[],[],[],[],[],[],[],0,38,38,38,1,classic,9,C5I,incongruent,,,,,,,,,,,,,,,,,
,,,,,,,,,,,,,,,,,,test2,0,2020-01-01_00h00.00.000,stroop_artemis_2025.2.3,2025.2.4,MacIntel,61.88118812,,,,,,,,,,,,,,,,,,,,,,,,,,,,,,,,,,,,,,,,,,,,,,,,,,,,,,,,,,,,,,,,,,,,,,,,,,,,,,,,,,,,,,,,,,,,,,,,,,,,,,,,,,,,,,,,,,,,,,XXXX,hotpink,1.134,338.779,340.03,"[""l""]",[0.6959999999999695],[null],[],[],[],[],[],[],[],0,39,39,39,1,classic,10,N2I,neutral,,,,,,,,,,,,,,,,,
,,,,,,,,,,,,,,,,,,test2,0,2020-01-01_00h00.00.000,stroop_artemis_2025.2.3,2025.2.4,MacIntel,61.88118812,,,,,,,,,,,,,,,,,,,,,,,,,,,,,,,,,,,,,,,,,,,,,,,,,,,,,,,,,,,,,,,,,,,,,,,,,,,,,,,,,,,,,,,,,,,,,,,,,,,,,,,,,,,,,,,,,,,,,,XXXXX,saddlebrown,1.117,340.033,341.26,"[""k""]",[0.5419999999999732],[null],[],[],[],[],[],[],[],0,40,40,40,1,classic,10,N2I,neutral,,,,,,,,,,,,,,,,,
,,,,,,,,,,,,,,,,,,test2,0,2020-01-01_00h00.00.000,stroop_artemis_2025.2.3,2025.2.4,MacIntel,61.88118812,,,,,,,,,,,,,,,,,,,,,,,,,,,,,,,,,,,,,,,,,,,,,,,,,,,,,,,,,,,,,,,,,,,,,,,,,,,,,,,,,,,,,,,,,,,,,,,,,,,,,,,,,,,,,,,,,,,,,,BLUE,hotpink,1.067,341.263,342.446,"[""l""]",[0.9720000000000368],[null],[],[],[],[],[],[],[],0,41,41,41,1,classic,10,N2I,incongruent,,,,,,,,,,,,,,,,,
,,,,,,,,,,,,,,,,,,test2,0,2020-01-01_00h00.00.000,stroop_artemis_2025.2.3,2025.2.4,MacIntel,61.88118812,,,,,,,,,,,,,,,,,,,,,,,,,,,,,,,,,,,,,,,,,,,,,,,,,,,,,,,,,,,,,,,,,,,,,,,,,,,,,,,,,,,,,,,,,,,,,,,,,,,,,,,,,,,,,,,,,,,,,,BROWN,saddlebrown,1.05,342.448,343.616,"[""k""]",[0.8149999999999977],[null],[],[],[],[],[],[],[],0,42,42,42,1,classic,11,C4I,congruent,,,,,,,,,,,,,,,,,
,,,,,,,,,,,,,,,,,,test2,0,2020-01-01_00h00.00.000,stroop_artemis_2025.2.3,2025.2.4,MacIntel,61.88118812,,,,,,,,,,,,,,,,,,,,,,,,,,,,,,,,,,,,,,,,,,,,,,,,,,,,,,,,,,,,,,,,,,,,,,,,,,,,,,,,,,,,,,,,,,,,,,,,,,,,,,,,,,,,,,,,,,,,,,BLUE,blue,1.167,343.619,344.898,"[""j""]",[0.5919999999999845],[null],[],[],[],[],[],[],[],0,43,43,43,1,classic,11,C4I,congruent,,,,,,,,,,,,,,,,,
,,,,,,,,,,,,,,,,,,test2,0,2020-01-01_00h00.00.000,stroop_artemis_2025.2.3,2025.2.4,MacIntel,61.88118812,,,,,,,,,,,,,,,,,,,,,,,,,,,,,,,,,,,,,,,,,,,,,,,,,,,,,,,,,,,,,,,,,,,,,,,,,,,,,,,,,,,,,,,,,,,,,,,,,,,,,,,,,,,,,,,,,,,,,,BROWN,saddlebrown,1.017,344.9,346.025,"[""k""]",[0.646000000000015],[null],[],[],[],[],[],[],[],0,44,44,44,1,classic,11,C4I,congruent,,,,,,,,,,,,,,,,,
,,,,,,,,,,,,,,,,,,test2,0,2020-01-01_00h00.00.000,stroop_artemis_2025.2.3,2025.2.4,MacIntel,61.88118812,,,,,,,,,,,,,,,,,,,,,,,,,,,,,,,,,,,,,,,,,,,,,,,,,,,,,,,,,,,,,,,,,,,,,,,,,,,,,,,,,,,,,,,,,,,,,,,,,,,,,,,,,,,,,,,,,,,,,,PINK,hotpink,1.067,346.027,347.199,"[""l""]",[0.5179999999999723],[null],[],[],[],[],[],[],[],0,45,45,45,1,classic,11,C4I,congruent,,,,,,,,,,,,,,,,,
,,,,,,,,,,,,,,,,,,test2,0,2020-01-01_00h00.00.000,stroop_artemis_2025.2.3,2025.2.4,MacIntel,61.88118812,,,,,,,,,,,,,,,,,,,,,,,,,,,,,,,,,,,,,,,,,,,,,,,,,,,,,,,,,,,,,,,,,,,,,,,,,,,,,,,,,,,,,,,,,,,,,,,,,,,,,,,,,,,,,,,,,,,,,,BLUE,saddlebrown,1.084,347.203,348.388,"[""k""]",[0.8720000000000141],[null],[],[],[],[],[],[],[],0,46,46,46,1,classic,11,C4I,incongruent,,,,,,,,,,,,,,,,,
,,,,,,,,,,,,,,,,,,test2,0,2020-01-01_00h00.00.000,stroop_artemis_2025.2.3,2025.2.4,MacIntel,61.88118812,,,,,,,,,,,,,,,,,,,,,,,,,,,,,,,,,,,,,,,,,,,,,,,,,,,,,,,,,,,,,,,,,,,,,,,,,,,,,,,,,,,,,,,,,,,,,,,,,,,,,,,,,,,,,,,,,,,,,,BROWN,saddlebrown,1.05,348.392,349.553,"[""k""]",[0.5039999999999623],[null],[],[],[],[],[],[],[],0,47,47,47,1,classic,12,C6I,congruent,,,,,,,,,,,,,,,,,
,,,,,,,,,,,,,,,,,,test2,0,2020-01-01_00h00.00.000,stroop_artemis_2025.2.3,2025.2.4,MacIntel,61.88118812,,,,,,,,,,,,,,,,,,,,,,,,,,,,,,,,,,,,,,,,,,,,,,,,,,,,,,,,,,,,,,,,,,,,,,,,,,,,,,,,,,,,,,,,,,,,,,,,,,,,,,,,,,,,,,,,,,,,,,PINK,hotpink,1.184,349.556,350.851,"[""l""]",[0.47100000000000364],[null],[],[],[],[],[],[],[],0,48,48,48,1,classic,12,C6I,congruent,,,,,,,,,,,,,,,,,
,,,,,,,,,,,,,,,,,,test2,0,2020-01-01_00h00.00.000,stroop_artemis_2025.2.3,2025.2.4,MacIntel,61.88118812,,,,,,,,,,,,,,,,,,,,,,,,,,,,,,,,,,,,,,,,,,,,,,,,,,,,,,,,,,,,,,,,,,,,,,,,,,,,,,,,,,,,,,,,,,,,,,,,,,,,,,,,,,,,,,,,,,,,,,BLUE,blue,1.15,350.854,352.118,"[""j""]",[0.5460000000000491],[null],[],[],[],[],[],[],[],0,49,49,49,1,classic,12,C6I,congruent,,,,,,,,,,,,,,,,,
,,,,,,,,,,,,,,,,,,test2,0,2020-01-01_00h00.00.000,stroop_artemis_2025.2.3,2025.2.4,MacIntel,61.88118812,,,,,,,,,,,,,,,,,,,,,,,,,,,,,,,,,,,,,,,,,,,,,,,,,,,,,,,,,,,,,,,,,,,,,,,,,,,,,,,,,,,,,,,,,,,,,,,,,,,,,,,,,,,,,,,,,,,,,,PINK,hotpink,1.2,352.12,353.427,"[""k"",""l""]","[0.4370000000000118,0.7769999999999868]","[null,null]",[],[],[],[],[],[],[],0,50,50,50,1,classic,12,C6I,congruent,,,,,,,,,,,,,,,,,
,,,,,,,,,,,,,,,,,,test2,0,2020-01-01_00h00.00.000,stroop_artemis_2025.2.3,2025.2.4,MacIntel,61.88118812,,,,,,,,,,,,,,,,,,,,,,,,,,,,,,,,,,,,,,,,,,,,,,,,,,,,,,,,,,,,,,,,,,,,,,,,,,,,,,,,,,,,,,,,,,,,,,,,,,,,,,,,,,,,,,,,,,,,,,BROWN,saddlebrown,1.167,353.44,354.714,,,,[],[],[],[],[],[],[],0,51,51,51,1,classic,12,C6I,congruent,,,,,,,,,,,,,,,,,
,,,,,,,,,,,,,,,,,,test2,0,2020-01-01_00h00.00.000,stroop_artemis_2025.2.3,2025.2.4,MacIntel,61.88118812,,,,,,,,,,,,,,,,,,,,,,,,,,,,,,,,,,,,,,,,,,,,,,,,,,,,,,,,,,,,,,,,,,,,,,,,,,,,,,,,,,,,,,,,,,,,,,,,,,,,,,,,,,,,,,,,,,,,,,BLUE,blue,1.117,354.716,355.936,"[""k"",""j""]","[0.05099999999998772,1.0129999999999768]","[null,null]",[],[],[],[],[],[],[],0,52,52,52,1,classic,12,C6I,congruent,,,,,,,,,,,,,,,,,
,,,,,,,,,,,,,,,,,,test2,0,2020-01-01_00h00.00.000,stroop_artemis_2025.2.3,2025.2.4,MacIntel,61.88118812,,,,,,,,,,,,,,,,,,,,,,,,,,,,,,,,,,,,,,,,,,,,,,,,,,,,,,,,,,,,,,,,,,,,,,,,,,,,,,,,,,,,,,,,,,,,,,,,,,,,,,,,,,,,,,,,,,,,,,BROWN,blue,1.134,355.947,357.185,"[""k""]",[0.7249999999999659],[null],[],[],[],[],[],[],[],0,53,53,53,1,classic,12,C6I,incongruent,,,,,,,,,,,,,,,,,
,,,,,,,,,,,,,,,,,,test2,0,2020-01-01_00h00.00.000,stroop_artemis_2025.2.3,2025.2.4,MacIntel,61.88118812,,,,,,,,,,,,,,,,,,,,,,,,,,,,,,,,,,,,,,,,,,,,,,,,,,,,,,,,,,,,,,,,,,,,,,,,,,,,,,,,,,,,,,,,,,,,,,,,,,,,,,,,,,,,,,,,,,,,,,XXX,blue,1,357.186,358.287,"[""j""]",[0.03099999999994907],[null],[],[],[],[],[],[],[],0,54,54,54,1,classic,13,N2I,neutral,,,,,,,,,,,,,,,,,
,,,,,,,,,,,,,,,,,,test2,0,2020-01-01_00h00.00.000,stroop_artemis_2025.2.3,2025.2.4,MacIntel,61.88118812,,,,,,,,,,,,,,,,,,,,,,,,,,,,,,,,,,,,,,,,,,,,,,,,,,,,,,,,,,,,,,,,,,,,,,,,,,,,,,,,,,,,,,,,,,,,,,,,,,,,,,,,,,,,,,,,,,,,,,XXXXX,saddlebrown,1.034,358.291,359.429,"[""k""]",[0.4770000000000323],[null],[],[],[],[],[],[],[],0,55,55,55,1,classic,13,N2I,neutral,,,,,,,,,,,,,,,,,
,,,,,,,,,,,,,,,,,,test2,0,2020-01-01_00h00.00.000,stroop_artemis_2025.2.3,2025.2.4,MacIntel,61.88118812,,,,,,,,,,,,,,,,,,,,,,,,,,,,,,,,,,,,,,,,,,,,,,,,,,,,,,,,,,,,,,,,,,,,,,,,,,,,,,,,,,,,,,,,,,,,,,,,,,,,,,,,,,,,,,,,,,,,,,BROWN,hotpink,1.1,359.432,360.645,"[""l""]",[0.7899999999999636],[null],[],[],[],[],[],[],[],0,56,56,56,1,classic,13,N2I,incongruent,,,,,,,,,,,,,,,,,
,,,,,,,,,,,,,,,,,,test2,0,2020-01-01_00h00.00.000,stroop_artemis_2025.2.3,2025.2.4,MacIntel,61.88118812,,,,,,,,,,,,,,,,,,,,,,,,,,,,,,,,,,,,,,,,,,,,,,,,,,,,,,,,,,,,,,,,,,,,,,,,,,,,,,,,,,,,,,,,,,,,,,,,,,,,,,,,,,,,,,,,,,,,,,PINK,hotpink,1.067,360.647,361.832,"[""l""]",[0.5980000000000132],[null],[],[],[],[],[],[],[],0,57,57,57,1,classic,14,C2I,congruent,,,,,,,,,,,,,,,,,
,,,,,,,,,,,,,,,,,,test2,0,2020-01-01_00h00.00.000,stroop_artemis_2025.2.3,2025.2.4,MacIntel,61.88118812,,,,,,,,,,,,,,,,,,,,,,,,,,,,,,,,,,,,,,,,,,,,,,,,,,,,,,,,,,,,,,,,,,,,,,,,,,,,,,,,,,,,,,,,,,,,,,,,,,,,,,,,,,,,,,,,,,,,,,BLUE,blue,1.167,361.834,363.12,"[""j""]",[0.625],[null],[],[],[],[],[],[],[],0,58,58,58,1,classic,14,C2I,congruent,,,,,,,,,,,,,,,,,
,,,,,,,,,,,,,,,,,,test2,0,2020-01-01_00h00.00.000,stroop_artemis_2025.2.3,2025.2.4,MacIntel,61.88118812,,,,,,,,,,,,,,,,,,,,,,,,,,,,,,,,,,,,,,,,,,,,,,,,,,,,,,,,,,,,,,,,,,,,,,,,,,,,,,,,,,,,,,,,,,,,,,,,,,,,,,,,,,,,,,,,,,,,,,BLUE,hotpink,1.184,363.123,364.4,"[""l""]",[0.8560000000000514],[null],[],[],[],[],[],[],[],0,59,59,59,1,classic,14,C2I,incongruent,,,,,,,,,,,,,,,,,
,,,,,,,,,,,,,,,,,,test2,0,2020-01-01_00h00.00.000,stroop_artemis_2025.2.3,2025.2.4,MacIntel,61.88118812,,,,,,,,,,,,,,,,,,,,,,,,,,,,,,,,,,,,,,,,,,,,,,,,,,,,,,,,,,,,,,,,,,,,,,,,,,,,,,,,,,,,,,,,,,,,,,,,,,,,,,,,,,,,,,,,,,,,,,BROWN,saddlebrown,1.084,364.403,365.594,"[""k""]",[0.5260000000000105],[null],[],[],[],[],[],[],[],0,60,60,60,1,classic,15,C6I,congruent,,,,,,,,,,,,,,,,,
,,,,,,,,,,,,,,,,,,test2,0,2020-01-01_00h00.00.000,stroop_artemis_2025.2.3,2025.2.4,MacIntel,61.88118812,,,,,,,,,,,,,,,,,,,,,,,,,,,,,,,,,,,,,,,,,,,,,,,,,,,,,,,,,,,,,,,,,,,,,,,,,,,,,,,,,,,,,,,,,,,,,,,,,,,,,,,,,,,,,,,,,,,,,,PINK,hotpink,1,365.598,366.702,"[""l""]",[0.5540000000000305],[null],[],[],[],[],[],[],[],0,61,61,61,1,classic,15,C6I,congruent,,,,,,,,,,,,,,,,,
,,,,,,,,,,,,,,,,,,test2,0,2020-01-01_00h00.00.000,stroop_artemis_2025.2.3,2025.2.4,MacIntel,61.88118812,,,,,,,,,,,,,,,,,,,,,,,,,,,,,,,,,,,,,,,,,,,,,,,,,,,,,,,,,,,,,,,,,,,,,,,,,,,,,,,,,,,,,,,,,,,,,,,,,,,,,,,,,,,,,,,,,,,,,,BROWN,saddlebrown,1.134,366.704,367.951,"[""k""]",[0.4919999999999618],[null],[],[],[],[],[],[],[],0,62,62,62,1,classic,15,C6I,congruent,,,,,,,,,,,,,,,,,
,,,,,,,,,,,,,,,,,,test2,0,2020-01-01_00h00.00.000,stroop_artemis_2025.2.3,2025.2.4,MacIntel,61.88118812,,,,,,,,,,,,,,,,,,,,,,,,,,,,,,,,,,,,,,,,,,,,,,,,,,,,,,,,,,,,,,,,,,,,,,,,,,,,,,,,,,,,,,,,,,,,,,,,,,,,,,,,,,,,,,,,,,,,,,BLUE,blue,1.034,367.951,369.097,"[""j""]",[0.7239999999999895],[null],[],[],[],[],[],[],[],0,63,63,63,1,classic,15,C6I,congruent,,,,,,,,,,,,,,,,,
,,,,,,,,,,,,,,,,,,test2,0,2020-01-01_00h00.00.000,stroop_artemis_2025.2.3,2025.2.4,MacIntel,61.88118812,,,,,,,,,,,,,,,,,,,,,,,,,,,,,,,,,,,,,,,,,,,,,,,,,,,,,,,,,,,,,,,,,,,,,,,,,,,,,,,,,,,,,,,,,,,,,,,,,,,,,,,,,,,,,,,,,,,,,,PINK,hotpink,1.05,369.099,370.259,"[""l""]",[0.5480000000000018],[null],[],[],[],[],[],[],[],0,64,64,64,1,classic,15,C6I,congruent,,,,,,,,,,,,,,,,,
