device_detector.started,device_detector.stopped,device_primaryInput,device_screenWidth,device_screenHeight,device_hasTouch,device_hasKeyboard,device_hasMouse,device_userAgent,init_key_input.keys,init_key_input.rt,init_key_input.duration,init_touch_input.x,init_touch_input.y,init_touch_input.leftButton,init_touch_input.midButton,init_touch_input.rightButton,init_touch_input.time,participant,session,date,expName,psychopyVersion,OS,frameRate,inst_select.started,inst_select.stopped,vid_inst_reps,txt_inst_reps,select_video.numClicks,select_video.timesOn,select_video.timesOff,select_text.numClicks,select_text.timesOn,select_text.timesOff,inst1.started,inst1.stopped,inst1_key_resp.keys,inst1_key_resp.rt,inst1_key_resp.duration,inst1_mouse.x,inst1_mouse.y,inst1_mouse.leftButton,inst1_mouse.midButton,inst1_mouse.rightButton,inst1_mouse.time,txt.thisRepN,txt.thisTrialN,txt.thisN,txt.thisIndex,txt.ran,inst2.started,inst2.stopped,inst2_key_resp.keys,inst2_key_resp.rt,inst2_key_resp.duration,inst2_mouse.x,inst2_mouse.y,inst2_mouse.leftButton,inst2_mouse.midButton,inst2_mouse.rightButton,inst2_mouse.time,practice.started,practice.stopped,prac_key_resp.keys,prac_key_resp.corr,prac_key_resp.rt,prac_key_resp.duration,prac_mouse.x,prac_mouse.y,prac_mouse.leftButton,prac_mouse.midButton,prac_mouse.rightButton,prac_mouse.time,prac_mouse.corr,prac_mouse.clicked_name,feedback.started,feedback.stopped,feedback_key.keys,feedback_mouse.x,feedback_mouse.y,feedback_mouse.leftButton,feedback_mouse.midButton,feedback_mouse.rightButton,feedback_mouse.time,prac.thisRepN,prac.thisTrialN,prac.thisN,prac.thisIndex,prac.ran,pword,pcolor,pcolor_fmt,pkey_correct,ptouch_correct,pcondition,inst2_2.started,inst2_2.stopped,inst2_key_resp_2.keys,inst2_key_resp_2.rt,inst2_key_resp_2.duration,inst2_mouse_2.x,inst2_mouse_2.y,inst2_mouse_2.leftButton,inst2_mouse_2.midButton,inst2_mouse_2.rightButton,inst2_mouse_2.time,fixation.started,fixation.stopped,practice_2.started,practice_2.stopped,prac_key_resp_2.keys,prac_key_resp_2.corr,prac_key_resp_2.rt,prac_key_resp_2.duration,prac_mouse_2.x,prac_mouse_2.y,prac_mouse_2.leftButton,prac_mouse_2.midButton,prac_mouse_2.rightButton,prac_mouse_2.time,prac_mouse_2.corr,prac_mouse_2.clicked_name,prac_2.thisRepN,prac_2.thisTrialN,prac_2.thisN,prac_2.thisIndex,prac_2.ran,pduration,inst3.started,inst3.stopped,inst3_key_resp.keys,inst3_key_resp.rt,inst3_key_resp.duration,inst3_mouse.x,inst3_mouse.y,inst3_mouse.leftButton,inst3_mouse.midButton,inst3_mouse.rightButton,inst3_mouse.time,get_ready.started,get_ready.stopped,thisWord,thisColor,thisDuration,trial.started,trial.stopped,trial_key_resp.keys,trial_key_resp.rt,trial_key_resp.duration,trial_mouse.x,trial_mouse.y,trial_mouse.leftButton,trial_mouse.midButton,trial_mouse.rightButton,trial_mouse.time,trial_mouse.clicked_name,trials.thisRepN,trials.thisTrialN,trials.thisN,trials.thisIndex,trials.ran,test,subblock,subblock_type,condition,change_color,emot_color_switch,rest.started,rest.stopped,ready.started,ready.stopped,blocks.thisRepN,blocks.thisTrialN,blocks.thisN,blocks.thisIndex,blocks.ran,block_type,conditions_filepath,block_rows_s,block_rows,end.started,end.stopped
0.0006,0.8303,keyboard,1528,836,TRUE,TRUE,TRUE,"Mozilla/5.0 (Windows NT 10.0; Win64; x64) AppleWebKit/537.36 (KHTML, like Gecko) Chrome/146.0.0.0 Safari/537.36 Edg/146.0.0.0",space,0.814,,[],[],[],[],[],[],test1,0,2020-01-01_00h00.00.000,stroop_artemis_2025.2.3,2025.2.4,Win32,60.24096386,,,,,,,,,,,,,,,,,,,,,,,,,,,,,,,,,,,,,,,,,,,,,,,,,,,,,,,,,,,,,,,,,,,,,,,,,,,,,,,,,,,,,,,,,,,,,,,,,,,,,,,,,,,,,,,,,,,,,,,,,,,,,,,,,,,,,,,,,,,,,,,,,,,,,,,,,,,,,,
,,,,,,,,,,,,,,,,,,test1,0,2020-01-01_00h00.00.000,stroop_artemis_2025.2.3,2025.2.4,Win32,60.24096386,0.831,1.9521,0,1,0,[],[],1,[2.119400000000372],[2.119400000000372],,,,,,,,,,,,,,,,,,,,,,,,,,,,,,,,,,,,,,,,,,,,,,,,,,,,,,,,,,,,,,,,,,,,,,,,,,,,,,,,,,,,,,,,,,,,,,,,,,,,,,,,,,,,,,,,,,,,,,,,,,,,,,,,,,,,,,,,,,,,,,,,,,,,
,,,,,,,,,,,,,,,,,,test1,0,2020-01-01_00h00.00.000,stroop_artemis_2025.2.3,2025.2.4,Win32,60.24096386,,,,,,,,,,,1.9563,7.8773,space,5.8906,,[],[],[],[],[],[],0,0,0,0,1,,,,,,,,,,,,,,,,,,,,,,,,,,,,,,,,,,,,,,,,,,,,,,,,,,,,,,,,,,,,,,,,,,,,,,,,,,,,,,,,,,,,,,,,,,,,,,,,,,,,,,,,,,,,,,,,,,,,,,,,,,,,,,,,,,,,
,,,,,,,,,,,,,,,,,,test1,0,2020-01-01_00h00.00.000,stroop_artemis_2025.2.3,2025.2.4,Win32,60.24096386,,,,,,,,,,,,,,,,,,,,,,,,,,,7.8779,8.8934,space,0.9845,,[],[],[],[],[],[],,,,,,,,,,,,,,,,,,,,,,,,,,,,,,,,,,,,,,,,,,,,,,,,,,,,,,,,,,,,,,,,,,,,,,,,,,,,,,,,,,,,,,,,,,,,,,,,,,,,,,,,,,,,,,,,,,,,,,,,,
,,,,,,,,,,,,,,,,,,test1,0,2020-01-01_00h00.00.000,stroop_artemis_2025.2.3,2025.2.4,Win32,60.24096386,,,,,,,,,,,,,,,,,,,,,,,,,,,,,,,,,,,,,,8.9201,13.2582,j,1,4.2963,,[],[],[],[],[],[],[],[],13.2585,16.2569,,[],[],[],[],[],[],0,0,0,0,1,BLUE,blue,blue,j,prac_opt1_shape,CONGRUENT,,,,,,,,,,,,,,,,,,,,,,,,,,,,,,,,,,,,,,,,,,,,,,,,,,,,,,,,,,,,,,,,,,,,,,,,,,,,,,,,,,,,,,,
,,,,,,,,,,,,,,,,,,test1,0,2020-01-01_00h00.00.000,stroop_artemis_2025.2.3,2025.2.4,Win32,60.24096386,,,,,,,,,,,,,,,,,,,,,,,,,,,,,,,,,,,,,,16.2598,17.4228,l,0,1.134,,[],[],[],[],[],[],[],[],17.4236,20.4213,,[],[],[],[],[],[],0,1,1,1,1,PINK,saddlebrown,brown,k,prac_opt2_shape,INCONGRUENT,,,,,,,,,,,,,,,,,,,,,,,,,,,,,,,,,,,,,,,,,,,,,,,,,,,,,,,,,,,,,,,,,,,,,,,,,,,,,,,,,,,,,,,
,,,,,,,,,,,,,,,,,,test1,0,2020-01-01_00h00.00.000,stroop_artemis_2025.2.3,2025.2.4,Win32,60.24096386,,,,,,,,,,,,,,,,,,,,,,,,,,,,,,,,,,,,,,20.4231,21.7375,l,1,1.2943,,[],[],[],[],[],[],[],[],21.7383,24.7361,,[],[],[],[],[],[],0,2,2,2,1,XXXX,hotpink,pink,l,prac_opt3_shape,NEUTRAL,,,,,,,,,,,,,,,,,,,,,,,,,,,,,,,,,,,,,,,,,,,,,,,,,,,,,,,,,,,,,,,,,,,,,,,,,,,,,,,,,,,,,,,
,,,,,,,,,,,,,,,,,,test1,0,2020-01-01_00h00.00.000,stroop_artemis_2025.2.3,2025.2.4,Win32,60.24096386,,,,,,,,,,,,,,,,,,,,,,,,,,,,,,,,,,,,,,24.7389,26.2689,k,1,1.5127,,[],[],[],[],[],[],[],[],26.269,29.2675,,[],[],[],[],[],[],0,3,3,3,1,darkness,saddlebrown,brown,k,prac_opt2_shape,,,,,,,,,,,,,,,,,,,,,,,,,,,,,,,,,,,,,,,,,,,,,,,,,,,,,,,,,,,,,,,,,,,,,,,,,,,,,,,,,,,,,,,,
,,,,,,,,,,,,,,,,,,test1,0,2020-01-01_00h00.00.000,stroop_artemis_2025.2.3,2025.2.4,Win32,60.24096386,,,,,,,,,,,,,,,,,,,,,,,,,,,,,,,,,,,,,,29.2706,30.4173,l,1,1.1376,,[],[],[],[],[],[],[],[],30.4176,33.4156,,[],[],[],[],[],[],0,4,4,4,1,lamp,hotpink,pink,l,prac_opt3_shape,,,,,,,,,,,,,,,,,,,,,,,,,,,,,,,,,,,,,,,,,,,,,,,,,,,,,,,,,,,,,,,,,,,,,,,,,,,,,,,,,,,,,,,,
,,,,,,,,,,,,,,,,,,test1,0,2020-01-01_00h00.00.000,stroop_artemis_2025.2.3,2025.2.4,Win32,60.24096386,,,,,,,,,,,,,,,,,,,,,,,,,,,,,,,,,,,,,,33.4169,34.9319,j,1,1.5022,,[],[],[],[],[],[],[],[],34.932,37.9309,,[],[],[],[],[],[],0,5,5,5,1,clip,blue,blue,j,prac_opt1_shape,,,,,,,,,,,,,,,,,,,,,,,,,,,,,,,,,,,,,,,,,,,,,,,,,,,,,,,,,,,,,,,,,,,,,,,,,,,,,,,,,,,,,,,,
,,,,,,,,,,,,,,,,,,test1,0,2020-01-01_00h00.00.000,stroop_artemis_2025.2.3,2025.2.4,Win32,60.24096386,,,,,,,,,,,,,,,,,,,,,,,,,,,,,,,,,,,,,,,,,,,,,,,,,,,,,,,,,,,,,,,,,,,,,,,,37.9317,40.4129,space,2.4679,,[],[],[],[],[],[],,,,,,,,,,,,,,,,,,,,,,,,,,,,,,,,,,,,,,,,,,,,,,,,,,,,,,,,,,,,,,,,,,,,,,,,,,,,
,,,,,,,,,,,,,,,,,,test1,0,2020-01-01_00h00.00.000,stroop_artemis_2025.2.3,2025.2.4,Win32,60.24096386,,,,,,,,,,,,,,,,,,,,,,,,,,,,,,,,,,,,,,,,,,,,,,,,,,,,,,,,,,,,,,,,,,,,,,,,,,,,,,,,,,,40.4131,42.4121,,,,,,,,,,,,,,,,,,,,,,,,,,,,,,,,,,,,,,,,,,,,,,,,,,,,,,,,,,,,,,,,,,,,,,,,,,
,,,,,,,,,,,,,,,,,,test1,0,2020-01-01_00h00.00.000,stroop_artemis_2025.2.3,2025.2.4,Win32,60.24096386,,,,,,,,,,,,,,,,,,,,,,,,,,,,,,,,,,,,,,,,,,,,,,,,,,,,,,,,,,,,,,,,,,BLUE,hotpink,pink,l,prac_opt3_shape,INCONGRUENT,,,,,,,,,,,,,,42.4277,44.4281,l,1,0.9964,,[],[],[],[],[],[],[],[],0,0,0,0,1,2,,,,,,,,,,,,,,,,,,,,,,,,,,,,,,,,,,,,,,,,,,,,,,,,,,,,,,
,,,,,,,,,,,,,,,,,,test1,0,2020-01-01_00h00.00.000,stroop_artemis_2025.2.3,2025.2.4,Win32,60.24096386,,,,,,,,,,,,,,,,,,,,,,,,,,,,,,,,,,,,,,,,,,,,,,,,,,,,,,,,,,,,,,,,,,XXX,blue,blue,j,prac_opt1_shape,NEUTRAL,,,,,,,,,,,,,,44.4295,46.1769,j,1,0.7678,,[],[],[],[],[],[],[],[],0,1,1,1,1,1.75,,,,,,,,,,,,,,,,,,,,,,,,,,,,,,,,,,,,,,,,,,,,,,,,,,,,,,
,,,,,,,,,,,,,,,,,,test1,0,2020-01-01_00h00.00.000,stroop_artemis_2025.2.3,2025.2.4,Win32,60.24096386,,,,,,,,,,,,,,,,,,,,,,,,,,,,,,,,,,,,,,,,,,,,,,,,,,,,,,,,,,,,,,,,,,house,hotpink,pink,l,prac_opt3_shape,,,,,,,,,,,,,,,46.1787,47.6769,l,1,0.5981,,[],[],[],[],[],[],[],[],0,2,2,2,1,1.5,,,,,,,,,,,,,,,,,,,,,,,,,,,,,,,,,,,,,,,,,,,,,,,,,,,,,,
,,,,,,,,,,,,,,,,,,test1,0,2020-01-01_00h00.00.000,stroop_artemis_2025.2.3,2025.2.4,Win32,60.24096386,,,,,,,,,,,,,,,,,,,,,,,,,,,,,,,,,,,,,,,,,,,,,,,,,,,,,,,,,,,,,,,,,,darkness,saddlebrown,brown,k,prac_opt2_shape,,,,,,,,,,,,,,,47.6779,48.9258,k,1,0.5962,,[],[],[],[],[],[],[],[],0,3,3,3,1,1.25,,,,,,,,,,,,,,,,,,,,,,,,,,,,,,,,,,,,,,,,,,,,,,,,,,,,,,
,,,,,,,,,,,,,,,,,,test1,0,2020-01-01_00h00.00.000,stroop_artemis_2025.2.3,2025.2.4,Win32,60.24096386,,,,,,,,,,,,,,,,,,,,,,,,,,,,,,,,,,,,,,,,,,,,,,,,,,,,,,,,,,,,,,,,,,,,,,,,,,,,,,,,,,,,,,,,,,,,,,,,,,,,,,,,,48.9263,51.7261,space,2.7837,,[],[],[],[],[],[],,,,,,,,,,,,,,,,,,,,,,,,,,,,,,,,,,,,,,,,,,,
,,,,,,,,,,,,,,,,,,test1,0,2020-01-01_00h00.00.000,stroop_artemis_2025.2.3,2025.2.4,Win32,60.24096386,,,,,,,,,,,,,,,,,,,,,,,,,,,,,,,,,,,,,,,,,,,,,,,,,,,,,,,,,,,,,,,,,,,,,,,,,,,,,,,,,,,,,,,,,,,,,,,,,,,,,,,,,,,,,,,,,,,,51.7264,52.9241,,,,,,,,,,,,,,,,,,,,,,,,,,,,,,,,,,,,,,,,,
,,,,,,,,,,,,,,,,,,test1,0,2020-01-01_00h00.00.000,stroop_artemis_2025.2.3,2025.2.4,Win32,60.24096386,,,,,,,,,,,,,,,,,,,,,,,,,,,,,,,,,,,,,,,,,,,,,,,,,,,,,,,,,,,,,,,,,,,,,,,,,,,,,,,,,,,52.9242,54.9231,,,,,,,,,,,,,,,,,,,,,,,,,,,,,,,,,,,,,,,,,,,,,,,,,,,,,,,,,,,,,,,,,,,,,,,,,,
,,,,,,,,,,,,,,,,,,test1,0,2020-01-01_00h00.00.000,stroop_artemis_2025.2.3,2025.2.4,Win32,60.24096386,,,,,,,,,,,,,,,,,,,,,,,,,,,,,,,,,,,,,,,,,,,,,,,,,,,,,,,,,,,,,,,,,,,,,,,,,,,,,,,,,,,,,,,,,,,,,,,,,,,,,,,,,,,,,,,,,,,,,,hour,hotpink,1.167,54.9476,56.2228,"[""l""]",[0.5501000000005547],[null],[],[],[],[],[],[],[],0,0,0,0,1,emotional,91,Neutx2_Neg,neutral,1,,,,,,,,,,,,,,,,
,,,,,,,,,,,,,,,,,,test1,0,2020-01-01_00h00.00.000,stroop_artemis_2025.2.3,2025.2.4,Win32,60.24096386,,,,,,,,,,,,,,,,,,,,,,,,,,,,,,,,,,,,,,,,,,,,,,,,,,,,,,,,,,,,,,,,,,,,,,,,,,,,,,,,,,,,,,,,,,,,,,,,,,,,,,,,,,,,,,,,,,,,,,spray,hotpink,1.117,56.2243,57.4559,"[""l""]",[0.6328999999994593],[null],[],[],[],[],[],[],[],0,1,1,1,1,emotional,91,Neutx2_Neg,neutral,0,,,,,,,,,,,,,,,,
,,,,,,,,,,,,,,,,,,test1,0,2020-01-01_00h00.00.000,stroop_artemis_2025.2.3,2025.2.4,Win32,60.24096386,,,,,,,,,,,,,,,,,,,,,,,,,,,,,,,,,,,,,,,,,,,,,,,,,,,,,,,,,,,,,,,,,,,,,,,,,,,,,,,,,,,,,,,,,,,,,,,,,,,,,,,,,,,,,,,,,,,,,,death,hotpink,1.05,57.4573,58.6215,"[""l""]",[0.7963999999994371],[null],[],[],[],[],[],[],[],0,2,2,2,1,emotional,91,Neutx2_Neg,negative,0,NeutNegNoSwitch,,,,,,,,,,,,,,,
,,,,,,,,,,,,,,,,,,test1,0,2020-01-01_00h00.00.000,stroop_artemis_2025.2.3,2025.2.4,Win32,60.24096386,,,,,,,,,,,,,,,,,,,,,,,,,,,,,,,,,,,,,,,,,,,,,,,,,,,,,,,,,,,,,,,,,,,,,,,,,,,,,,,,,,,,,,,,,,,,,,,,,,,,,,,,,,,,,,,,,,,,,,wheelbarrow,saddlebrown,1.084,58.624,59.8209,"[""k""]",[0.5305000000000035],[null],[],[],[],[],[],[],[],0,3,3,3,1,emotional,92,Neutx4_Neg,neutral,1,,,,,,,,,,,,,,,,
,,,,,,,,,,,,,,,,,,test1,0,2020-01-01_00h00.00.000,stroop_artemis_2025.2.3,2025.2.4,Win32,60.24096386,,,,,,,,,,,,,,,,,,,,,,,,,,,,,,,,,,,,,,,,,,,,,,,,,,,,,,,,,,,,,,,,,,,,,,,,,,,,,,,,,,,,,,,,,,,,,,,,,,,,,,,,,,,,,,,,,,,,,,shake,saddlebrown,1,59.8223,60.9372,"[""k""]",[0.7295000000000016],[null],[],[],[],[],[],[],[],0,4,4,4,1,emotional,92,Neutx4_Neg,neutral,0,,,,,,,,,,,,,,,,
,,,,,,,,,,,,,,,,,,test1,0,2020-01-01_00h00.00.000,stroop_artemis_2025.2.3,2025.2.4,Win32,60.24096386,,,,,,,,,,,,,,,,,,,,,,,,,,,,,,,,,,,,,,,,,,,,,,,,,,,,,,,,,,,,,,,,,,,,,,,,,,,,,,,,,,,,,,,,,,,,,,,,,,,,,,,,,,,,,,,,,,,,,,pathetic,hotpink,1.15,60.9384,62.2033,"[""l""]",[0.6071000000005569],[null],[],[],[],[],[],[],[],0,5,5,5,1,emotional,92,Neutx4_Neg,negative,1,NeutNegSwitch,,,,,,,,,,,,,,,
,,,,,,,,,,,,,,,,,,test1,0,2020-01-01_00h00.00.000,stroop_artemis_2025.2.3,2025.2.4,Win32,60.24096386,,,,,,,,,,,,,,,,,,,,,,,,,,,,,,,,,,,,,,,,,,,,,,,,,,,,,,,,,,,,,,,,,,,,,,,,,,,,,,,,,,,,,,,,,,,,,,,,,,,,,,,,,,,,,,,,,,,,,,cancer,hotpink,1.034,62.2046,63.3528,"[""l""]",[0.6267000000001985],[null],[],[],[],[],[],[],[],0,6,6,6,1,emotional,93,Negx4,negative,0,,,,,,,,,,,,,,,,
,,,,,,,,,,,,,,,,,,test1,0,2020-01-01_00h00.00.000,stroop_artemis_2025.2.3,2025.2.4,Win32,60.24096386,,,,,,,,,,,,,,,,,,,,,,,,,,,,,,,,,,,,,,,,,,,,,,,,,,,,,,,,,,,,,,,,,,,,,,,,,,,,,,,,,,,,,,,,,,,,,,,,,,,,,,,,,,,,,,,,,,,,,,stress,hotpink,1.184,63.354,64.6525,"[""l""]",[0.41390000000038185],[null],[],[],[],[],[],[],[],0,7,7,7,1,emotional,93,Negx4,negative,0,NegNoSwitch,,,,,,,,,,,,,,,
,,,,,,,,,,,,,,,,,,test1,0,2020-01-01_00h00.00.000,stroop_artemis_2025.2.3,2025.2.4,Win32,60.24096386,,,,,,,,,,,,,,,,,,,,,,,,,,,,,,,,,,,,,,,,,,,,,,,,,,,,,,,,,,,,,,,,,,,,,,,,,,,,,,,,,,,,,,,,,,,,,,,,,,,,,,,,,,,,,,,,,,,,,,fashion,blue,1.067,64.6548,65.835,"[""j""]",[0.4750000000000085],[null],[],[],[],[],[],[],[],0,8,8,8,1,emotional,94,Neutx3_Pos,neutral,1,,,,,,,,,,,,,,,,
,,,,,,,,,,,,,,,,,,test1,0,2020-01-01_00h00.00.000,stroop_artemis_2025.2.3,2025.2.4,Win32,60.24096386,,,,,,,,,,,,,,,,,,,,,,,,,,,,,,,,,,,,,,,,,,,,,,,,,,,,,,,,,,,,,,,,,,,,,,,,,,,,,,,,,,,,,,,,,,,,,,,,,,,,,,,,,,,,,,,,,,,,,,suspense,blue,1.2,65.8362,67.1511,"[""j""]",[0.4722000000001856],[null],[],[],[],[],[],[],[],0,9,9,9,1,emotional,94,Neutx3_Pos,neutral,0,,,,,,,,,,,,,,,,
,,,,,,,,,,,,,,,,,,test1,0,2020-01-01_00h00.00.000,stroop_artemis_2025.2.3,2025.2.4,Win32,60.24096386,,,,,,,,,,,,,,,,,,,,,,,,,,,,,,,,,,,,,,,,,,,,,,,,,,,,,,,,,,,,,,,,,,,,,,,,,,,,,,,,,,,,,,,,,,,,,,,,,,,,,,,,,,,,,,,,,,,,,,splendid,blue,1.134,67.1526,68.4005,"[""j""]",[0.387100000000558],[null],[],[],[],[],[],[],[],0,10,10,10,1,emotional,94,Neutx3_Pos,positive,0,NeutPosNoSwitch,,,,,,,,,,,,,,,
,,,,,,,,,,,,,,,,,,test1,0,2020-01-01_00h00.00.000,stroop_artemis_2025.2.3,2025.2.4,Win32,60.24096386,,,,,,,,,,,,,,,,,,,,,,,,,,,,,,,,,,,,,,,,,,,,,,,,,,,,,,,,,,,,,,,,,,,,,,,,,,,,,,,,,,,,,,,,,,,,,,,,,,,,,,,,,,,,,,,,,,,,,,clever,blue,1.1,68.4022,69.6166,"[""j""]",[0.3534999999999968],[null],[],[],[],[],[],[],[],0,11,11,11,1,emotional,95,Posx3,positive,0,,,,,,,,,,,,,,,,
,,,,,,,,,,,,,,,,,,test1,0,2020-01-01_00h00.00.000,stroop_artemis_2025.2.3,2025.2.4,Win32,60.24096386,,,,,,,,,,,,,,,,,,,,,,,,,,,,,,,,,,,,,,,,,,,,,,,,,,,,,,,,,,,,,,,,,,,,,,,,,,,,,,,,,,,,,,,,,,,,,,,,,,,,,,,,,,,,,,,,,,,,,,trust,hotpink,1.017,69.6181,70.7495,"[""l""]",[0.7938000000007435],[null],[],[],[],[],[],[],[],0,12,12,12,1,emotional,95,Posx3,positive,1,PosSwitch,,,,,,,,,,,,,,,
,,,,,,,,,,,,,,,,,,test1,0,2020-01-01_00h00.00.000,stroop_artemis_2025.2.3,2025.2.4,Win32,60.24096386,,,,,,,,,,,,,,,,,,,,,,,,,,,,,,,,,,,,,,,,,,,,,,,,,,,,,,,,,,,,,,,,,,,,,,,,,,,,,,,,,,,,,,,,,,,,,,,,,,,,,,,,,,,,,,,,,,,,,,info,blue,1.15,70.7509,72.0158,"[""j""]",[0.5983999999994438],[null],[],[],[],[],[],[],[],0,13,13,13,1,emotional,96,Neutx4_Pos,neutral,1,,,,,,,,,,,,,,,,
,,,,,,,,,,,,,,,,,,test1,0,2020-01-01_00h00.00.000,stroop_artemis_2025.2.3,2025.2.4,Win32,60.24096386,,,,,,,,,,,,,,,,,,,,,,,,,,,,,,,,,,,,,,,,,,,,,,,,,,,,,,,,,,,,,,,,,,,,,,,,,,,,,,,,,,,,,,,,,,,,,,,,,,,,,,,,,,,,,,,,,,,,,,fridge,blue,1.1,72.0177,73.2319,"[""j""]",[0.4156000000005662],[null],[],[],[],[],[],[],[],0,14,14,14,1,emotional,96,Neutx4_Pos,neutral,0,,,,,,,,,,,,,,,,
,,,,,,,,,,,,,,,,,,test1,0,2020-01-01_00h00.00.000,stroop_artemis_2025.2.3,2025.2.4,Win32,60.24096386,,,,,,,,,,,,,,,,,,,,,,,,,,,,,,,,,,,,,,,,,,,,,,,,,,,,,,,,,,,,,,,,,,,,,,,,,,,,,,,,,,,,,,,,,,,,,,,,,,,,,,,,,,,,,,,,,,,,,,sociable,blue,1.167,73.2329,74.5147,"[""j""]",[0.49499999999999034],[null],[],[],[],[],[],[],[],0,15,15,15,1,emotional,96,Neutx4_Pos,positive,0,NeutPosNoSwitch,,,,,,,,,,,,,,,
,,,,,,,,,,,,,,,,,,test1,0,2020-01-01_00h00.00.000,stroop_artemis_2025.2.3,2025.2.4,Win32,60.24096386,,,,,,,,,,,,,,,,,,,,,,,,,,,,,,,,,,,,,,,,,,,,,,,,,,,,,,,,,,,,,,,,,,,,,,,,,,,,,,,,,,,,,,,,,,,,,,,,,,,,,,,,,,,,,,,,,,,,,,interview,hotpink,1.067,74.5159,75.6973,"[""l""]",[0.5868999999994458],[null],[],[],[],[],[],[],[],0,16,16,16,1,emotional,97,Neutx3_Neg,neutral,1,,,,,,,,,,,,,,,,
,,,,,,,,,,,,,,,,,,test1,0,2020-01-01_00h00.00.000,stroop_artemis_2025.2.3,2025.2.4,Win32,60.24096386,,,,,,,,,,,,,,,,,,,,,,,,,,,,,,,,,,,,,,,,,,,,,,,,,,,,,,,,,,,,,,,,,,,,,,,,,,,,,,,,,,,,,,,,,,,,,,,,,,,,,,,,,,,,,,,,,,,,,,attic,hotpink,1.134,75.6987,76.9469,"[""l""]",[0.5347999999998194],[null],[],[],[],[],[],[],[],0,17,17,17,1,emotional,97,Neutx3_Neg,neutral,0,,,,,,,,,,,,,,,,
,,,,,,,,,,,,,,,,,,test1,0,2020-01-01_00h00.00.000,stroop_artemis_2025.2.3,2025.2.4,Win32,60.24096386,,,,,,,,,,,,,,,,,,,,,,,,,,,,,,,,,,,,,,,,,,,,,,,,,,,,,,,,,,,,,,,,,,,,,,,,,,,,,,,,,,,,,,,,,,,,,,,,,,,,,,,,,,,,,,,,,,,,,,sad,hotpink,1.117,76.948,78.1797,"[""l""]",[0.3469999999999942],[null],[],[],[],[],[],[],[],0,18,18,18,1,emotional,97,Neutx3_Neg,negative,0,NeutNegNoSwitch,,,,,,,,,,,,,,,
,,,,,,,,,,,,,,,,,,test1,0,2020-01-01_00h00.00.000,stroop_artemis_2025.2.3,2025.2.4,Win32,60.24096386,,,,,,,,,,,,,,,,,,,,,,,,,,,,,,,,,,,,,,,,,,,,,,,,,,,,,,,,,,,,,,,,,,,,,,,,,,,,,,,,,,,,,,,,,,,,,,,,,,,,,,,,,,,,,,,,,,,,,,commanding,saddlebrown,1.05,78.1811,79.3461,"[""k""]",[0.7879999999999967],[null],[],[],[],[],[],[],[],0,19,19,19,1,emotional,98,Neutx5_Pos,neutral,1,,,,,,,,,,,,,,,,
,,,,,,,,,,,,,,,,,,test1,0,2020-01-01_00h00.00.000,stroop_artemis_2025.2.3,2025.2.4,Win32,60.24096386,,,,,,,,,,,,,,,,,,,,,,,,,,,,,,,,,,,,,,,,,,,,,,,,,,,,,,,,,,,,,,,,,,,,,,,,,,,,,,,,,,,,,,,,,,,,,,,,,,,,,,,,,,,,,,,,,,,,,,graphic,saddlebrown,1.034,79.3476,80.4955,"[""k""]",[0.3364000000003813],[null],[],[],[],[],[],[],[],0,20,20,20,1,emotional,98,Neutx5_Pos,neutral,0,,,,,,,,,,,,,,,,
,,,,,,,,,,,,,,,,,,test1,0,2020-01-01_00h00.00.000,stroop_artemis_2025.2.3,2025.2.4,Win32,60.24096386,,,,,,,,,,,,,,,,,,,,,,,,,,,,,,,,,,,,,,,,,,,,,,,,,,,,,,,,,,,,,,,,,,,,,,,,,,,,,,,,,,,,,,,,,,,,,,,,,,,,,,,,,,,,,,,,,,,,,,colorful,saddlebrown,1.084,80.4976,81.6948,"[""k""]",[0.36870000000018877],[null],[],[],[],[],[],[],[],0,21,21,21,1,emotional,98,Neutx5_Pos,positive,0,NeutPosNoSwitch,,,,,,,,,,,,,,,
,,,,,,,,,,,,,,,,,,test1,0,2020-01-01_00h00.00.000,stroop_artemis_2025.2.3,2025.2.4,Win32,60.24096386,,,,,,,,,,,,,,,,,,,,,,,,,,,,,,,,,,,,,,,,,,,,,,,,,,,,,,,,,,,,,,,,,,,,,,,,,,,,,,,,,,,,,,,,,,,,,,,,,,,,,,,,,,,,,,,,,,,,,,sunscreen,hotpink,1.2,81.6961,83.0109,"[""l""]",[0.4635999999996159],[null],[],[],[],[],[],[],[],0,22,22,22,1,emotional,99,Neutx3_Pos,neutral,1,,,,,,,,,,,,,,,,
,,,,,,,,,,,,,,,,,,test1,0,2020-01-01_00h00.00.000,stroop_artemis_2025.2.3,2025.2.4,Win32,60.24096386,,,,,,,,,,,,,,,,,,,,,,,,,,,,,,,,,,,,,,,,,,,,,,,,,,,,,,,,,,,,,,,,,,,,,,,,,,,,,,,,,,,,,,,,,,,,,,,,,,,,,,,,,,,,,,,,,,,,,,giant,hotpink,1,83.012,84.127,"[""l""]",[0.3914000000003739],[null],[],[],[],[],[],[],[],0,23,23,23,1,emotional,99,Neutx3_Pos,neutral,0,,,,,,,,,,,,,,,,
,,,,,,,,,,,,,,,,,,test1,0,2020-01-01_00h00.00.000,stroop_artemis_2025.2.3,2025.2.4,Win32,60.24096386,,,,,,,,,,,,,,,,,,,,,,,,,,,,,,,,,,,,,,,,,,,,,,,,,,,,,,,,,,,,,,,,,,,,,,,,,,,,,,,,,,,,,,,,,,,,,,,,,,,,,,,,,,,,,,,,,,,,,,tranquil,hotpink,1.017,84.1284,85.2599,"[""l""]",[0.48729999999982],[null],[],[],[],[],[],[],[],0,24,24,24,1,emotional,99,Neutx3_Pos,positive,0,NeutPosNoSwitch,,,,,,,,,,,,,,,
,,,,,,,,,,,,,,,,,,test1,0,2020-01-01_00h00.00.000,stroop_artemis_2025.2.3,2025.2.4,Win32,60.24096386,,,,,,,,,,,,,,,,,,,,,,,,,,,,,,,,,,,,,,,,,,,,,,,,,,,,,,,,,,,,,,,,,,,,,,,,,,,,,,,,,,,,,,,,,,,,,,,,,,,,,,,,,,,,,,,,,,,,,,warehouse,saddlebrown,1.184,85.2616,86.5594,"[""k""]",[0.6355000000000075],[null],[],[],[],[],[],[],[],0,25,25,25,1,emotional,100,Neutx2_Pos,neutral,1,,,,,,,,,,,,,,,,
,,,,,,,,,,,,,,,,,,test1,0,2020-01-01_00h00.00.000,stroop_artemis_2025.2.3,2025.2.4,Win32,60.24096386,,,,,,,,,,,,,,,,,,,,,,,,,,,,,,,,,,,,,,,,,,,,,,,,,,,,,,,,,,,,,,,,,,,,,,,,,,,,,,,,,,,,,,,,,,,,,,,,,,,,,,,,,,,,,,,,,,,,,,gigantic,saddlebrown,1.034,86.5607,87.7088,"[""k""]",[0.4369999999999976],[null],[],[],[],[],[],[],[],0,26,26,26,1,emotional,100,Neutx2_Pos,neutral,0,,,,,,,,,,,,,,,,
,,,,,,,,,,,,,,,,,,test1,0,2020-01-01_00h00.00.000,stroop_artemis_2025.2.3,2025.2.4,Win32,60.24096386,,,,,,,,,,,,,,,,,,,,,,,,,,,,,,,,,,,,,,,,,,,,,,,,,,,,,,,,,,,,,,,,,,,,,,,,,,,,,,,,,,,,,,,,,,,,,,,,,,,,,,,,,,,,,,,,,,,,,,superior,hotpink,1.017,87.71,88.8417,"[""l""]",[0.7338000000007412],[null],[],[],[],[],[],[],[],0,27,27,27,1,emotional,100,Neutx2_Pos,positive,1,NeutPosSwitch,,,,,,,,,,,,,,,
,,,,,,,,,,,,,,,,,,test1,0,2020-01-01_00h00.00.000,stroop_artemis_2025.2.3,2025.2.4,Win32,60.24096386,,,,,,,,,,,,,,,,,,,,,,,,,,,,,,,,,,,,,,,,,,,,,,,,,,,,,,,,,,,,,,,,,,,,,,,,,,,,,,,,,,,,,,,,,,,,,,,,,,,,,,,,,,,,,,,,,,,,,,whiskers,saddlebrown,1.184,88.8429,90.1412,"[""k""]",[0.617700000000184],[null],[],[],[],[],[],[],[],0,28,28,28,1,emotional,101,Neutx2_Pos,neutral,1,,,,,,,,,,,,,,,,
,,,,,,,,,,,,,,,,,,test1,0,2020-01-01_00h00.00.000,stroop_artemis_2025.2.3,2025.2.4,Win32,60.24096386,,,,,,,,,,,,,,,,,,,,,,,,,,,,,,,,,,,,,,,,,,,,,,,,,,,,,,,,,,,,,,,,,,,,,,,,,,,,,,,,,,,,,,,,,,,,,,,,,,,,,,,,,,,,,,,,,,,,,,tilt,saddlebrown,1.167,90.1423,91.424,"[""k""]",[0.3452999999998241],[null],[],[],[],[],[],[],[],0,29,29,29,1,emotional,101,Neutx2_Pos,neutral,0,,,,,,,,,,,,,,,,
,,,,,,,,,,,,,,,,,,test1,0,2020-01-01_00h00.00.000,stroop_artemis_2025.2.3,2025.2.4,Win32,60.24096386,,,,,,,,,,,,,,,,,,,,,,,,,,,,,,,,,,,,,,,,,,,,,,,,,,,,,,,,,,,,,,,,,,,,,,,,,,,,,,,,,,,,,,,,,,,,,,,,,,,,,,,,,,,,,,,,,,,,,,darling,saddlebrown,1.2,91.4253,92.7401,"[""k""]",[0.2997999999998058],[null],[],[],[],[],[],[],[],0,30,30,30,1,emotional,101,Neutx2_Pos,positive,0,NeutPosNoSwitch,,,,,,,,,,,,,,,
,,,,,,,,,,,,,,,,,,test1,0,2020-01-01_00h00.00.000,stroop_artemis_2025.2.3,2025.2.4,Win32,60.24096386,,,,,,,,,,,,,,,,,,,,,,,,,,,,,,,,,,,,,,,,,,,,,,,,,,,,,,,,,,,,,,,,,,,,,,,,,,,,,,,,,,,,,,,,,,,,,,,,,,,,,,,,,,,,,,,,,,,,,,alone,blue,1,92.7425,93.8564,"[""j""]",[0.5602999999998133],[null],[],[],[],[],[],[],[],0,31,31,31,1,emotional,102,Negx2,negative,1,,,,,,,,,,,,,,,,
,,,,,,,,,,,,,,,,,,test1,0,2020-01-01_00h00.00.000,stroop_artemis_2025.2.3,2025.2.4,Win32,60.24096386,,,,,,,,,,,,,,,,,,,,,,,,,,,,,,,,,,,,,,,,,,,,,,,,,,,,,,,,,,,,,,,,,,,,,,,,,,,,,,,,,,,,,,,,,,,,,,,,,,,,,,,,,,,,,,,,,,,,,,stubborn,saddlebrown,1.117,93.8578,95.089,"[""k""]",[0.5567999999998108],[null],[],[],[],[],[],[],[],0,32,32,32,1,emotional,102,Negx2,negative,1,NegSwitch,,,,,,,,,,,,,,,
,,,,,,,,,,,,,,,,,,test1,0,2020-01-01_00h00.00.000,stroop_artemis_2025.2.3,2025.2.4,Win32,60.24096386,,,,,,,,,,,,,,,,,,,,,,,,,,,,,,,,,,,,,,,,,,,,,,,,,,,,,,,,,,,,,,,,,,,,,,,,,,,,,,,,,,,,,,,,,,,,,,,,,,,,,,,,,,,,,,,,,,,,,,town,hotpink,1.067,95.0901,96.2719,"[""l""]",[0.5122999999998115],[null],[],[],[],[],[],[],[],0,33,33,33,1,emotional,103,Neutx3_Neg,neutral,1,,,,,,,,,,,,,,,,
,,,,,,,,,,,,,,,,,,test1,0,2020-01-01_00h00.00.000,stroop_artemis_2025.2.3,2025.2.4,Win32,60.24096386,,,,,,,,,,,,,,,,,,,,,,,,,,,,,,,,,,,,,,,,,,,,,,,,,,,,,,,,,,,,,,,,,,,,,,,,,,,,,,,,,,,,,,,,,,,,,,,,,,,,,,,,,,,,,,,,,,,,,,ginger,hotpink,1.1,96.2731,97.488,"[""k""]",[0.40450000000001296],[null],[],[],[],[],[],[],[],0,34,34,34,1,emotional,103,Neutx3_Neg,neutral,0,,,,,,,,,,,,,,,,
,,,,,,,,,,,,,,,,,,test1,0,2020-01-01_00h00.00.000,stroop_artemis_2025.2.3,2025.2.4,Win32,60.24096386,,,,,,,,,,,,,,,,,,,,,,,,,,,,,,,,,,,,,,,,,,,,,,,,,,,,,,,,,,,,,,,,,,,,,,,,,,,,,,,,,,,,,,,,,,,,,,,,,,,,,,,,,,,,,,,,,,,,,,shame,blue,1.134,97.4892,98.7374,"[""j""]",[0.6945999999996246],[null],[],[],[],[],[],[],[],0,35,35,35,1,emotional,103,Neutx3_Neg,negative,1,NeutNegSwitch,,,,,,,,,,,,,,,
,,,,,,,,,,,,,,,,,,test1,0,2020-01-01_00h00.00.000,stroop_artemis_2025.2.3,2025.2.4,Win32,60.24096386,,,,,,,,,,,,,,,,,,,,,,,,,,,,,,,,,,,,,,,,,,,,,,,,,,,,,,,,,,,,,,,,,,,,,,,,,,,,,,,,,,,,,,,,,,,,,,,,,,,,,,,,,,,,,,,,,,,,,,slant,saddlebrown,1.05,98.7386,99.9036,"[""k""]",[0.5940999999996279],[null],[],[],[],[],[],[],[],0,36,36,36,1,emotional,104,Neutx2_Neg,neutral,1,,,,,,,,,,,,,,,,
,,,,,,,,,,,,,,,,,,test1,0,2020-01-01_00h00.00.000,stroop_artemis_2025.2.3,2025.2.4,Win32,60.24096386,,,,,,,,,,,,,,,,,,,,,,,,,,,,,,,,,,,,,,,,,,,,,,,,,,,,,,,,,,,,,,,,,,,,,,,,,,,,,,,,,,,,,,,,,,,,,,,,,,,,,,,,,,,,,,,,,,,,,,pretend,saddlebrown,1.084,99.9048,101.103,"[""k""]",[0.44270000000018683],[null],[],[],[],[],[],[],[],0,37,37,37,1,emotional,104,Neutx2_Neg,neutral,0,,,,,,,,,,,,,,,,
,,,,,,,,,,,,,,,,,,test1,0,2020-01-01_00h00.00.000,stroop_artemis_2025.2.3,2025.2.4,Win32,60.24096386,,,,,,,,,,,,,,,,,,,,,,,,,,,,,,,,,,,,,,,,,,,,,,,,,,,,,,,,,,,,,,,,,,,,,,,,,,,,,,,,,,,,,,,,,,,,,,,,,,,,,,,,,,,,,,,,,,,,,,defective,blue,1.15,101.1043,102.3693,"[""j""]",[0.644700000000185],[null],[],[],[],[],[],[],[],0,38,38,38,1,emotional,104,Neutx2_Neg,negative,1,NeutNegSwitch,,,,,,,,,,,,,,,
,,,,,,,,,,,,,,,,,,test1,0,2020-01-01_00h00.00.000,stroop_artemis_2025.2.3,2025.2.4,Win32,60.24096386,,,,,,,,,,,,,,,,,,,,,,,,,,,,,,,,,,,,,,,,,,,,,,,,,,,,,,,,,,,,,,,,,,,,,,,,,,,,,,,,,,,,,,,,,,,,,,,,,,,,,,,,,,,,,,,,,,,,,,flip,saddlebrown,1.2,102.3706,103.6854,"[""k""]",[0.5181000000005582],[null],[],[],[],[],[],[],[],0,39,39,39,1,emotional,105,Neutx4_Neg,neutral,1,,,,,,,,,,,,,,,,
,,,,,,,,,,,,,,,,,,test1,0,2020-01-01_00h00.00.000,stroop_artemis_2025.2.3,2025.2.4,Win32,60.24096386,,,,,,,,,,,,,,,,,,,,,,,,,,,,,,,,,,,,,,,,,,,,,,,,,,,,,,,,,,,,,,,,,,,,,,,,,,,,,,,,,,,,,,,,,,,,,,,,,,,,,,,,,,,,,,,,,,,,,,principal,saddlebrown,1.134,103.6866,104.9348,"[""k""]",[0.4624999999999915],[null],[],[],[],[],[],[],[],0,40,40,40,1,emotional,105,Neutx4_Neg,neutral,0,,,,,,,,,,,,,,,,
,,,,,,,,,,,,,,,,,,test1,0,2020-01-01_00h00.00.000,stroop_artemis_2025.2.3,2025.2.4,Win32,60.24096386,,,,,,,,,,,,,,,,,,,,,,,,,,,,,,,,,,,,,,,,,,,,,,,,,,,,,,,,,,,,,,,,,,,,,,,,,,,,,,,,,,,,,,,,,,,,,,,,,,,,,,,,,,,,,,,,,,,,,,blunder,saddlebrown,1.067,104.9359,106.1175,"[""k""]",[0.33849999999999625],[null],[],[],[],[],[],[],[],0,41,41,41,1,emotional,105,Neutx4_Neg,negative,0,NeutNegNoSwitch,,,,,,,,,,,,,,,
,,,,,,,,,,,,,,,,,,test1,0,2020-01-01_00h00.00.000,stroop_artemis_2025.2.3,2025.2.4,Win32,60.24096386,,,,,,,,,,,,,,,,,,,,,,,,,,,,,,,,,,,,,,,,,,,,,,,,,,,,,,,,,,,,,,,,,,,,,,,,,,,,,,,,,,,,,,,,,,,,,,,,,,,,,,,,,,,,,,,,,,,,,,testify,hotpink,1.017,106.1187,107.2504,"[""l""]",[0.8457999999998123],[null],[],[],[],[],[],[],[],0,42,42,42,1,emotional,106,Neutx5_Neg,neutral,1,,,,,,,,,,,,,,,,
,,,,,,,,,,,,,,,,,,test1,0,2020-01-01_00h00.00.000,stroop_artemis_2025.2.3,2025.2.4,Win32,60.24096386,,,,,,,,,,,,,,,,,,,,,,,,,,,,,,,,,,,,,,,,,,,,,,,,,,,,,,,,,,,,,,,,,,,,,,,,,,,,,,,,,,,,,,,,,,,,,,,,,,,,,,,,,,,,,,,,,,,,,,unit,hotpink,1.084,107.2514,108.45,"[""l""]",[0.662399999999451],[null],[],[],[],[],[],[],[],0,43,43,43,1,emotional,106,Neutx5_Neg,neutral,0,,,,,,,,,,,,,,,,
,,,,,,,,,,,,,,,,,,test1,0,2020-01-01_00h00.00.000,stroop_artemis_2025.2.3,2025.2.4,Win32,60.24096386,,,,,,,,,,,,,,,,,,,,,,,,,,,,,,,,,,,,,,,,,,,,,,,,,,,,,,,,,,,,,,,,,,,,,,,,,,,,,,,,,,,,,,,,,,,,,,,,,,,,,,,,,,,,,,,,,,,,,,funeral,blue,1.117,108.4513,109.6828,"[""j""]",[0.797299999999808],[null],[],[],[],[],[],[],[],0,44,44,44,1,emotional,106,Neutx5_Neg,negative,1,NeutNegSwitch,,,,,,,,,,,,,,,
,,,,,,,,,,,,,,,,,,test1,0,2020-01-01_00h00.00.000,stroop_artemis_2025.2.3,2025.2.4,Win32,60.24096386,,,,,,,,,,,,,,,,,,,,,,,,,,,,,,,,,,,,,,,,,,,,,,,,,,,,,,,,,,,,,,,,,,,,,,,,,,,,,,,,,,,,,,,,,,,,,,,,,,,,,,,,,,,,,,,,,,,,,,striped,saddlebrown,1.05,109.6841,110.8489,"[""k""]",[0.6188999999994422],[null],[],[],[],[],[],[],[],0,45,45,45,1,emotional,107,Neutx4_Neg,neutral,1,,,,,,,,,,,,,,,,
,,,,,,,,,,,,,,,,,,test1,0,2020-01-01_00h00.00.000,stroop_artemis_2025.2.3,2025.2.4,Win32,60.24096386,,,,,,,,,,,,,,,,,,,,,,,,,,,,,,,,,,,,,,,,,,,,,,,,,,,,,,,,,,,,,,,,,,,,,,,,,,,,,,,,,,,,,,,,,,,,,,,,,,,,,,,,,,,,,,,,,,,,,,rapid,saddlebrown,1.167,110.8504,112.1317,"[""k""]",[0.769700000000185],[null],[],[],[],[],[],[],[],0,46,46,46,1,emotional,107,Neutx4_Neg,neutral,0,,,,,,,,,,,,,,,,
,,,,,,,,,,,,,,,,,,test1,0,2020-01-01_00h00.00.000,stroop_artemis_2025.2.3,2025.2.4,Win32,60.24096386,,,,,,,,,,,,,,,,,,,,,,,,,,,,,,,,,,,,,,,,,,,,,,,,,,,,,,,,,,,,,,,,,,,,,,,,,,,,,,,,,,,,,,,,,,,,,,,,,,,,,,,,,,,,,,,,,,,,,,insult,blue,1.15,112.1327,113.3978,"[""j""]",[1.0410999999996307],[null],[],[],[],[],[],[],[],0,47,47,47,1,emotional,107,Neutx4_Neg,negative,1,NeutNegSwitch,,,,,,,,,,,,,,,
,,,,,,,,,,,,,,,,,,test1,0,2020-01-01_00h00.00.000,stroop_artemis_2025.2.3,2025.2.4,Win32,60.24096386,,,,,,,,,,,,,,,,,,,,,,,,,,,,,,,,,,,,,,,,,,,,,,,,,,,,,,,,,,,,,,,,,,,,,,,,,,,,,,,,,,,,,,,,,,,,,,,,,,,,,,,,,,,,,,,,,,,,,,sunshine,hotpink,1,113.399,114.5141,"[""l""]",[0.6697999999998103],[null],[],[],[],[],[],[],[],0,48,48,48,1,emotional,108,Posx3,positive,1,,,,,,,,,,,,,,,,
,,,,,,,,,,,,,,,,,,test1,0,2020-01-01_00h00.00.000,stroop_artemis_2025.2.3,2025.2.4,Win32,60.24096386,,,,,,,,,,,,,,,,,,,,,,,,,,,,,,,,,,,,,,,,,,,,,,,,,,,,,,,,,,,,,,,,,,,,,,,,,,,,,,,,,,,,,,,,,,,,,,,,,,,,,,,,,,,,,,,,,,,,,,dignified,hotpink,1.034,114.5152,115.6635,"[""l""]",[0.3960000000000008],[null],[],[],[],[],[],[],[],0,49,49,49,1,emotional,108,Posx3,positive,0,,,,,,,,,,,,,,,,
,,,,,,,,,,,,,,,,,,test1,0,2020-01-01_00h00.00.000,stroop_artemis_2025.2.3,2025.2.4,Win32,60.24096386,,,,,,,,,,,,,,,,,,,,,,,,,,,,,,,,,,,,,,,,,,,,,,,,,,,,,,,,,,,,,,,,,,,,,,,,,,,,,,,,,,,,,,,,,,,,,,,,,,,,,,,,,,,,,,,,,,,,,,embrace,blue,1.1,115.6646,116.8796,"[""k""]",[0.4480000000000075],[null],[],[],[],[],[],[],[],0,50,50,50,1,emotional,108,Posx3,positive,1,PosSwitch,,,,,,,,,,,,,,,
,,,,,,,,,,,,,,,,,,test1,0,2020-01-01_00h00.00.000,stroop_artemis_2025.2.3,2025.2.4,Win32,60.24096386,,,,,,,,,,,,,,,,,,,,,,,,,,,,,,,,,,,,,,,,,,,,,,,,,,,,,,,,,,,,,,,,,,,,,,,,,,,,,,,,,,,,,,,,,,,,,,,,,,,,,,,,,,,,,,,,,,,,,,electricity,saddlebrown,1.184,116.8811,118.1794,"[""k""]",[0.369000000000014],[null],[],[],[],[],[],[],[],0,51,51,51,1,emotional,109,Neutx4_Pos,neutral,1,,,,,,,,,,,,,,,,
,,,,,,,,,,,,,,,,,,test1,0,2020-01-01_00h00.00.000,stroop_artemis_2025.2.3,2025.2.4,Win32,60.24096386,,,,,,,,,,,,,,,,,,,,,,,,,,,,,,,,,,,,,,,,,,,,,,,,,,,,,,,,,,,,,,,,,,,,,,,,,,,,,,,,,,,,,,,,,,,,,,,,,,,,,,,,,,,,,,,,,,,,,,mall,saddlebrown,1.184,118.1806,119.4785,"[""k""]",[0.4294000000003564],[null],[],[],[],[],[],[],[],0,52,52,52,1,emotional,109,Neutx4_Pos,neutral,0,,,,,,,,,,,,,,,,
,,,,,,,,,,,,,,,,,,test1,0,2020-01-01_00h00.00.000,stroop_artemis_2025.2.3,2025.2.4,Win32,60.24096386,,,,,,,,,,,,,,,,,,,,,,,,,,,,,,,,,,,,,,,,,,,,,,,,,,,,,,,,,,,,,,,,,,,,,,,,,,,,,,,,,,,,,,,,,,,,,,,,,,,,,,,,,,,,,,,,,,,,,,humorous,saddlebrown,1.1,119.4799,120.6946,"[""k""]",[0.33939999999941506],[null],[],[],[],[],[],[],[],0,53,53,53,1,emotional,109,Neutx4_Pos,positive,0,NeutPosNoSwitch,,,,,,,,,,,,,,,
,,,,,,,,,,,,,,,,,,test1,0,2020-01-01_00h00.00.000,stroop_artemis_2025.2.3,2025.2.4,Win32,60.24096386,,,,,,,,,,,,,,,,,,,,,,,,,,,,,,,,,,,,,,,,,,,,,,,,,,,,,,,,,,,,,,,,,,,,,,,,,,,,,,,,,,,,,,,,,,,,,,,,,,,,,,,,,,,,,,,,,,,,,,rocker,blue,1.017,120.6961,121.8275,"[""j""]",[0.49749999999998806],[null],[],[],[],[],[],[],[],0,54,54,54,1,emotional,110,Neutx5_Pos,neutral,1,,,,,,,,,,,,,,,,
,,,,,,,,,,,,,,,,,,test1,0,2020-01-01_00h00.00.000,stroop_artemis_2025.2.3,2025.2.4,Win32,60.24096386,,,,,,,,,,,,,,,,,,,,,,,,,,,,,,,,,,,,,,,,,,,,,,,,,,,,,,,,,,,,,,,,,,,,,,,,,,,,,,,,,,,,,,,,,,,,,,,,,,,,,,,,,,,,,,,,,,,,,,jeans,blue,1,121.8292,122.9439,"[""j""]",[0.7299999999999898],[null],[],[],[],[],[],[],[],0,55,55,55,1,emotional,110,Neutx5_Pos,neutral,0,,,,,,,,,,,,,,,,
,,,,,,,,,,,,,,,,,,test1,0,2020-01-01_00h00.00.000,stroop_artemis_2025.2.3,2025.2.4,Win32,60.24096386,,,,,,,,,,,,,,,,,,,,,,,,,,,,,,,,,,,,,,,,,,,,,,,,,,,,,,,,,,,,,,,,,,,,,,,,,,,,,,,,,,,,,,,,,,,,,,,,,,,,,,,,,,,,,,,,,,,,,,kiss,hotpink,1.167,122.9454,124.2267,"[""l""]",[0.53940000000037],[null],[],[],[],[],[],[],[],0,56,56,56,1,emotional,110,Neutx5_Pos,positive,1,NeutPosSwitch,,,,,,,,,,,,,,,
,,,,,,,,,,,,,,,,,,test1,0,2020-01-01_00h00.00.000,stroop_artemis_2025.2.3,2025.2.4,Win32,60.24096386,,,,,,,,,,,,,,,,,,,,,,,,,,,,,,,,,,,,,,,,,,,,,,,,,,,,,,,,,,,,,,,,,,,,,,,,,,,,,,,,,,,,,,,,,,,,,,,,,,,,,,,,,,,,,,,,,,,,,,mad,saddlebrown,1.067,124.2278,125.4094,"[""k""]",[0.6599999999999966],[null],[],[],[],[],[],[],[],0,57,57,57,1,emotional,111,Negx2,negative,1,,,,,,,,,,,,,,,,
,,,,,,,,,,,,,,,,,,test1,0,2020-01-01_00h00.00.000,stroop_artemis_2025.2.3,2025.2.4,Win32,60.24096386,,,,,,,,,,,,,,,,,,,,,,,,,,,,,,,,,,,,,,,,,,,,,,,,,,,,,,,,,,,,,,,,,,,,,,,,,,,,,,,,,,,,,,,,,,,,,,,,,,,,,,,,,,,,,,,,,,,,,,despair,saddlebrown,1.05,125.4116,126.5764,"[""k""]",[0.5444000000003939],[null],[],[],[],[],[],[],[],0,58,58,58,1,emotional,111,Negx2,negative,0,NegNoSwitch,,,,,,,,,,,,,,,
,,,,,,,,,,,,,,,,,,test1,0,2020-01-01_00h00.00.000,stroop_artemis_2025.2.3,2025.2.4,Win32,60.24096386,,,,,,,,,,,,,,,,,,,,,,,,,,,,,,,,,,,,,,,,,,,,,,,,,,,,,,,,,,,,,,,,,,,,,,,,,,,,,,,,,,,,,,,,,,,,,,,,,,,,,,,,,,,,,,,,,,,,,,delighted,blue,1.084,126.5776,127.7749,"[""k""]",[0.46779999999981214],[null],[],[],[],[],[],[],[],0,59,59,59,1,emotional,112,Posx2,positive,1,,,,,,,,,,,,,,,,
,,,,,,,,,,,,,,,,,,test1,0,2020-01-01_00h00.00.000,stroop_artemis_2025.2.3,2025.2.4,Win32,60.24096386,,,,,,,,,,,,,,,,,,,,,,,,,,,,,,,,,,,,,,,,,,,,,,,,,,,,,,,,,,,,,,,,,,,,,,,,,,,,,,,,,,,,,,,,,,,,,,,,,,,,,,,,,,,,,,,,,,,,,,lullaby,blue,1.117,127.7762,129.0078,"[""j""]",[0.5939999999999941],[null],[],[],[],[],[],[],[],0,60,60,60,1,emotional,112,Posx2,positive,0,PosNoSwitch,,,,,,,,,,,,,,,
,,,,,,,,,,,,,,,,,,test1,0,2020-01-01_00h00.00.000,stroop_artemis_2025.2.3,2025.2.4,Win32,60.24096386,,,,,,,,,,,,,,,,,,,,,,,,,,,,,,,,,,,,,,,,,,,,,,,,,,,,,,,,,,,,,,,,,,,,,,,,,,,,,,,,,,,,,,,,,,,,,,,,,,,,,,,,,,,,,,,,,,,,,,howl,saddlebrown,1.2,129.0092,130.3244,"[""k""]",[0.844600000000554],[null],[],[],[],[],[],[],[],0,61,61,61,1,emotional,113,Neutx5_Pos,neutral,1,,,,,,,,,,,,,,,,
,,,,,,,,,,,,,,,,,,test1,0,2020-01-01_00h00.00.000,stroop_artemis_2025.2.3,2025.2.4,Win32,60.24096386,,,,,,,,,,,,,,,,,,,,,,,,,,,,,,,,,,,,,,,,,,,,,,,,,,,,,,,,,,,,,,,,,,,,,,,,,,,,,,,,,,,,,,,,,,,,,,,,,,,,,,,,,,,,,,,,,,,,,,volume,saddlebrown,1.134,130.3258,131.5733,"[""k""]",[0.3677999999997894],[null],[],[],[],[],[],[],[],0,62,62,62,1,emotional,113,Neutx5_Pos,neutral,0,,,,,,,,,,,,,,,,
,,,,,,,,,,,,,,,,,,test1,0,2020-01-01_00h00.00.000,stroop_artemis_2025.2.3,2025.2.4,Win32,60.24096386,,,,,,,,,,,,,,,,,,,,,,,,,,,,,,,,,,,,,,,,,,,,,,,,,,,,,,,,,,,,,,,,,,,,,,,,,,,,,,,,,,,,,,,,,,,,,,,,,,,,,,,,,,,,,,,,,,,,,,hope,hotpink,1.034,131.5746,132.7227,"[""l""]",[0.47720000000018103],[null],[],[],[],[],[],[],[],0,63,63,63,1,emotional,113,Neutx5_Pos,positive,1,NeutPosSwitch,,,,,,,,,,,,,,,
,,,,,,,,,,,,,,,,,,test1,0,2020-01-01_00h00.00.000,stroop_artemis_2025.2.3,2025.2.4,Win32,60.24096386,,,,,,,,,,,,,,,,,,,,,,,,,,,,,,,,,,,,,,,,,,,,,,,,,,,,,,,,,,,,,,,,,,,,,,,,,,,,,,,,,,,,,,,,,,,,,,,,,,,,,,,,,,,,,,,,,,,,,,warrior,blue,1.15,132.724,133.9889,"[""j""]",[0.505500000000012],[null],[],[],[],[],[],[],[],0,64,64,64,1,emotional,114,Neutx4_Pos,neutral,1,,,,,,,,,,,,,,,,
,,,,,,,,,,,,,,,,,,test1,0,2020-01-01_00h00.00.000,stroop_artemis_2025.2.3,2025.2.4,Win32,60.24096386,,,,,,,,,,,,,,,,,,,,,,,,,,,,,,,,,,,,,,,,,,,,,,,,,,,,,,,,,,,,,,,,,,,,,,,,,,,,,,,,,,,,,,,,,,,,,,,,,,,,,,,,,,,,,,,,,,,,,,join,blue,1.067,133.9902,135.1717,"[""j""]",[0.8036999999992531],[null],[],[],[],[],[],[],[],0,65,65,65,1,emotional,114,Neutx4_Pos,neutral,0,,,,,,,,,,,,,,,,
,,,,,,,,,,,,,,,,,,test1,0,2020-01-01_00h00.00.000,stroop_artemis_2025.2.3,2025.2.4,Win32,60.24096386,,,,,,,,,,,,,,,,,,,,,,,,,,,,,,,,,,,,,,,,,,,,,,,,,,,,,,,,,,,,,,,,,,,,,,,,,,,,,,,,,,,,,,,,,,,,,,,,,,,,,,,,,,,,,,,,,,,,,,new,blue,1.05,135.1728,136.3381,"[""j""]",[0.6974999999999909],[null],[],[],[],[],[],[],[],0,66,66,66,1,emotional,114,Neutx4_Pos,positive,0,NeutPosNoSwitch,,,,,,,,,,,,,,,
,,,,,,,,,,,,,,,,,,test1,0,2020-01-01_00h00.00.000,stroop_artemis_2025.2.3,2025.2.4,Win32,60.24096386,,,,,,,,,,,,,,,,,,,,,,,,,,,,,,,,,,,,,,,,,,,,,,,,,,,,,,,,,,,,,,,,,,,,,,,,,,,,,,,,,,,,,,,,,,,,,,,,,,,,,,,,,,,,,,,,,,,,,,ashamed,hotpink,1.167,136.3396,137.6206,"[""l""]",[0.7602000000001681],[null],[],[],[],[],[],[],[],0,67,67,67,1,emotional,115,Negx3,negative,1,,,,,,,,,,,,,,,,
,,,,,,,,,,,,,,,,,,test1,0,2020-01-01_00h00.00.000,stroop_artemis_2025.2.3,2025.2.4,Win32,60.24096386,,,,,,,,,,,,,,,,,,,,,,,,,,,,,,,,,,,,,,,,,,,,,,,,,,,,,,,,,,,,,,,,,,,,,,,,,,,,,,,,,,,,,,,,,,,,,,,,,,,,,,,,,,,,,,,,,,,,,,sneer,hotpink,1.084,137.6217,138.8203,"[""l""]",[0.800299999999794],[null],[],[],[],[],[],[],[],0,68,68,68,1,emotional,115,Negx3,negative,0,,,,,,,,,,,,,,,,
,,,,,,,,,,,,,,,,,,test1,0,2020-01-01_00h00.00.000,stroop_artemis_2025.2.3,2025.2.4,Win32,60.24096386,,,,,,,,,,,,,,,,,,,,,,,,,,,,,,,,,,,,,,,,,,,,,,,,,,,,,,,,,,,,,,,,,,,,,,,,,,,,,,,,,,,,,,,,,,,,,,,,,,,,,,,,,,,,,,,,,,,,,,immature,hotpink,1.134,138.8215,140.07,"[""l""]",[0.4121999999992738],[null],[],[],[],[],[],[],[],0,69,69,69,1,emotional,115,Negx3,negative,0,NegNoSwitch,,,,,,,,,,,,,,,
,,,,,,,,,,,,,,,,,,test1,0,2020-01-01_00h00.00.000,stroop_artemis_2025.2.3,2025.2.4,Win32,60.24096386,,,,,,,,,,,,,,,,,,,,,,,,,,,,,,,,,,,,,,,,,,,,,,,,,,,,,,,,,,,,,,,,,,,,,,,,,,,,,,,,,,,,,,,,,,,,,,,,,,,,,,,,,,,,,,,,,,,,,,military,saddlebrown,1.2,140.0715,141.3857,"[""k""]",[0.5216000000005749],[null],[],[],[],[],[],[],[],0,70,70,70,1,emotional,116,Neutx1_Neg,neutral,1,,,,,,,,,,,,,,,,
,,,,,,,,,,,,,,,,,,test1,0,2020-01-01_00h00.00.000,stroop_artemis_2025.2.3,2025.2.4,Win32,60.24096386,,,,,,,,,,,,,,,,,,,,,,,,,,,,,,,,,,,,,,,,,,,,,,,,,,,,,,,,,,,,,,,,,,,,,,,,,,,,,,,,,,,,,,,,,,,,,,,,,,,,,,,,,,,,,,,,,,,,,,lousy,blue,1,141.3868,142.5019,"[""j""]",[0.6617000000001667],[null],[],[],[],[],[],[],[],0,71,71,71,1,emotional,116,Neutx1_Neg,negative,1,NeutNegSwitch,,,,,,,,,,,,,,,
,,,,,,,,,,,,,,,,,,test1,0,2020-01-01_00h00.00.000,stroop_artemis_2025.2.3,2025.2.4,Win32,60.24096386,,,,,,,,,,,,,,,,,,,,,,,,,,,,,,,,,,,,,,,,,,,,,,,,,,,,,,,,,,,,,,,,,,,,,,,,,,,,,,,,,,,,,,,,,,,,,,,,,,,,,,,,,,,,,,,,,,,,,,decimal,hotpink,1.15,142.5032,143.7681,"[""l""]",[0.7984000000003846],[null],[],[],[],[],[],[],[],0,72,72,72,1,emotional,117,Neutx5_Neg,neutral,1,,,,,,,,,,,,,,,,
,,,,,,,,,,,,,,,,,,test1,0,2020-01-01_00h00.00.000,stroop_artemis_2025.2.3,2025.2.4,Win32,60.24096386,,,,,,,,,,,,,,,,,,,,,,,,,,,,,,,,,,,,,,,,,,,,,,,,,,,,,,,,,,,,,,,,,,,,,,,,,,,,,,,,,,,,,,,,,,,,,,,,,,,,,,,,,,,,,,,,,,,,,,zigzag,hotpink,1.117,143.7698,145.0008,"[""l""]",[0.4689999999999941],[null],[],[],[],[],[],[],[],0,73,73,73,1,emotional,117,Neutx5_Neg,neutral,0,,,,,,,,,,,,,,,,
,,,,,,,,,,,,,,,,,,test1,0,2020-01-01_00h00.00.000,stroop_artemis_2025.2.3,2025.2.4,Win32,60.24096386,,,,,,,,,,,,,,,,,,,,,,,,,,,,,,,,,,,,,,,,,,,,,,,,,,,,,,,,,,,,,,,,,,,,,,,,,,,,,,,,,,,,,,,,,,,,,,,,,,,,,,,,,,,,,,,,,,,,,,dumb,blue,1.1,145.002,146.2176,"[""j""]",[0.5136000000005652],[null],[],[],[],[],[],[],[],0,74,74,74,1,emotional,117,Neutx5_Neg,negative,1,NeutNegSwitch,,,,,,,,,,,,,,,
,,,,,,,,,,,,,,,,,,test1,0,2020-01-01_00h00.00.000,stroop_artemis_2025.2.3,2025.2.4,Win32,60.24096386,,,,,,,,,,,,,,,,,,,,,,,,,,,,,,,,,,,,,,,,,,,,,,,,,,,,,,,,,,,,,,,,,,,,,,,,,,,,,,,,,,,,,,,,,,,,,,,,,,,,,,,,,,,,,,,,,,,,,,sin,blue,1.034,146.219,147.3664,"[""j""]",[0.42709999999962633],[null],[],[],[],[],[],[],[],0,75,75,75,1,emotional,118,Negx3,negative,0,,,,,,,,,,,,,,,,
,,,,,,,,,,,,,,,,,,test1,0,2020-01-01_00h00.00.000,stroop_artemis_2025.2.3,2025.2.4,Win32,60.24096386,,,,,,,,,,,,,,,,,,,,,,,,,,,,,,,,,,,,,,,,,,,,,,,,,,,,,,,,,,,,,,,,,,,,,,,,,,,,,,,,,,,,,,,,,,,,,,,,,,,,,,,,,,,,,,,,,,,,,,inadequate,hotpink,1.184,147.3675,148.6659,"[""l""]",[0.6452000000001874],[null],[],[],[],[],[],[],[],0,76,76,76,1,emotional,118,Negx3,negative,1,NegSwitch,,,,,,,,,,,,,,,
,,,,,,,,,,,,,,,,,,test1,0,2020-01-01_00h00.00.000,stroop_artemis_2025.2.3,2025.2.4,Win32,60.24096386,,,,,,,,,,,,,,,,,,,,,,,,,,,,,,,,,,,,,,,,,,,,,,,,,,,,,,,,,,,,,,,,,,,,,,,,,,,,,,,,,,,,,,,,,,,,,,,,,,,,,,,,,,,,,,,,,,,,,,waste,saddlebrown,1.017,148.667,149.7997,"[""k""]",[0.8024000000003753],[null],[],[],[],[],[],[],[],0,77,77,77,1,emotional,119,Negx2,negative,1,NegSwitch,,,,,,,,,,,,,,,
,,,,,,,,,,,,,,,,,,test1,0,2020-01-01_00h00.00.000,stroop_artemis_2025.2.3,2025.2.4,Win32,60.24096386,,,,,,,,,,,,,,,,,,,,,,,,,,,,,,,,,,,,,,,,,,,,,,,,,,,,,,,,,,,,,,,,,,,,,,,,,,,,,,,,,,,,,,,,,,,,,,,,,,,,,,,,,,,,,,,,,,,,,,trunk,blue,1.15,149.8006,151.0651,"[""j""]",[0.4987000000001842],[null],[],[],[],[],[],[],[],0,78,78,78,1,emotional,120,Neutx3_Neg,neutral,1,,,,,,,,,,,,,,,,
,,,,,,,,,,,,,,,,,,test1,0,2020-01-01_00h00.00.000,stroop_artemis_2025.2.3,2025.2.4,Win32,60.24096386,,,,,,,,,,,,,,,,,,,,,,,,,,,,,,,,,,,,,,,,,,,,,,,,,,,,,,,,,,,,,,,,,,,,,,,,,,,,,,,,,,,,,,,,,,,,,,,,,,,,,,,,,,,,,,,,,,,,,,direction,blue,1.067,151.0663,152.2477,"[""j""]",[0.2900999999996259],[null],[],[],[],[],[],[],[],0,79,79,79,1,emotional,120,Neutx3_Neg,neutral,0,,,,,,,,,,,,,,,,
,,,,,,,,,,,,,,,,,,test1,0,2020-01-01_00h00.00.000,stroop_artemis_2025.2.3,2025.2.4,Win32,60.24096386,,,,,,,,,,,,,,,,,,,,,,,,,,,,,,,,,,,,,,,,,,,,,,,,,,,,,,,,,,,,,,,,,,,,,,,,,,,,,,,,,,,,,,,,,,,,,,,,,,,,,,,,,,,,,,,,,,,,,,ridicule,blue,1.117,152.2488,153.4806,"[""j""]",[0.3507000000001881],[null],[],[],[],[],[],[],[],0,80,80,80,1,emotional,120,Neutx3_Neg,negative,0,NeutNegNoSwitch,,,,,,,,,,,,,,,
,,,,,,,,,,,,,,,,,,test1,0,2020-01-01_00h00.00.000,stroop_artemis_2025.2.3,2025.2.4,Win32,60.24096386,,,,,,,,,,,,,,,,,,,,,,,,,,,,,,,,,,,,,,,,,,,,,,,,,,,,,,,,,,,,,,,,,,,,,,,,,,,,,,,,,,,,,,,,,,,,,,,,,,,,,,,,,,,,,,,,,,,,,,garage,saddlebrown,1.184,153.4817,154.7799,"[""k""]",[0.735400000000368],[null],[],[],[],[],[],[],[],0,81,81,81,1,emotional,121,Neutx2_Neg,neutral,1,,,,,,,,,,,,,,,,
,,,,,,,,,,,,,,,,,,test1,0,2020-01-01_00h00.00.000,stroop_artemis_2025.2.3,2025.2.4,Win32,60.24096386,,,,,,,,,,,,,,,,,,,,,,,,,,,,,,,,,,,,,,,,,,,,,,,,,,,,,,,,,,,,,,,,,,,,,,,,,,,,,,,,,,,,,,,,,,,,,,,,,,,,,,,,,,,,,,,,,,,,,,wind,saddlebrown,1,154.7811,155.8962,"[""k""]",[0.9962999999998203],[null],[],[],[],[],[],[],[],0,82,82,82,1,emotional,121,Neutx2_Neg,neutral,0,,,,,,,,,,,,,,,,
,,,,,,,,,,,,,,,,,,test1,0,2020-01-01_00h00.00.000,stroop_artemis_2025.2.3,2025.2.4,Win32,60.24096386,,,,,,,,,,,,,,,,,,,,,,,,,,,,,,,,,,,,,,,,,,,,,,,,,,,,,,,,,,,,,,,,,,,,,,,,,,,,,,,,,,,,,,,,,,,,,,,,,,,,,,,,,,,,,,,,,,,,,,pitiful,saddlebrown,1.05,155.8973,157.0624,"[""k""]",[0.4998000000007323],[null],[],[],[],[],[],[],[],0,83,83,83,1,emotional,121,Neutx2_Neg,negative,0,NeutNegNoSwitch,,,,,,,,,,,,,,,
,,,,,,,,,,,,,,,,,,test1,0,2020-01-01_00h00.00.000,stroop_artemis_2025.2.3,2025.2.4,Win32,60.24096386,,,,,,,,,,,,,,,,,,,,,,,,,,,,,,,,,,,,,,,,,,,,,,,,,,,,,,,,,,,,,,,,,,,,,,,,,,,,,,,,,,,,,,,,,,,,,,,,,,,,,,,,,,,,,,,,,,,,,,sharp,hotpink,1.1,157.0636,158.2784,"[""l""]",[0.6060999999996284],[null],[],[],[],[],[],[],[],0,84,84,84,1,emotional,122,Neutx3_Neg,neutral,1,,,,,,,,,,,,,,,,
,,,,,,,,,,,,,,,,,,test1,0,2020-01-01_00h00.00.000,stroop_artemis_2025.2.3,2025.2.4,Win32,60.24096386,,,,,,,,,,,,,,,,,,,,,,,,,,,,,,,,,,,,,,,,,,,,,,,,,,,,,,,,,,,,,,,,,,,,,,,,,,,,,,,,,,,,,,,,,,,,,,,,,,,,,,,,,,,,,,,,,,,,,,rope,hotpink,1.167,158.2798,159.5612,"[""l""]",[0.4335000000000093],[null],[],[],[],[],[],[],[],0,85,85,85,1,emotional,122,Neutx3_Neg,neutral,0,,,,,,,,,,,,,,,,
,,,,,,,,,,,,,,,,,,test1,0,2020-01-01_00h00.00.000,stroop_artemis_2025.2.3,2025.2.4,Win32,60.24096386,,,,,,,,,,,,,,,,,,,,,,,,,,,,,,,,,,,,,,,,,,,,,,,,,,,,,,,,,,,,,,,,,,,,,,,,,,,,,,,,,,,,,,,,,,,,,,,,,,,,,,,,,,,,,,,,,,,,,,awkward,hotpink,1.017,159.5623,160.694,"[""l""]",[0.5384999999999991],[null],[],[],[],[],[],[],[],0,86,86,86,1,emotional,122,Neutx3_Neg,negative,0,NeutNegNoSwitch,,,,,,,,,,,,,,,
,,,,,,,,,,,,,,,,,,test1,0,2020-01-01_00h00.00.000,stroop_artemis_2025.2.3,2025.2.4,Win32,60.24096386,,,,,,,,,,,,,,,,,,,,,,,,,,,,,,,,,,,,,,,,,,,,,,,,,,,,,,,,,,,,,,,,,,,,,,,,,,,,,,,,,,,,,,,,,,,,,,,,,,,,,,,,,,,,,,,,,,,,,,joke,saddlebrown,1.084,160.6954,161.8945,"[""j""]",[0.6230999999996243],[null],[],[],[],[],[],[],[],0,87,87,87,1,emotional,123,Posx2,positive,1,,,,,,,,,,,,,,,,
,,,,,,,,,,,,,,,,,,test1,0,2020-01-01_00h00.00.000,stroop_artemis_2025.2.3,2025.2.4,Win32,60.24096386,,,,,,,,,,,,,,,,,,,,,,,,,,,,,,,,,,,,,,,,,,,,,,,,,,,,,,,,,,,,,,,,,,,,,,,,,,,,,,,,,,,,,,,,,,,,,,,,,,,,,,,,,,,,,,,,,,,,,,cute,saddlebrown,1.034,161.8957,163.0432,"[""j""]",[0.4662999999998192],[null],[],[],[],[],[],[],[],0,88,88,88,1,emotional,123,Posx2,positive,0,PosNoSwitch,,,,,,,,,,,,,,,
,,,,,,,,,,,,,,,,,,test1,0,2020-01-01_00h00.00.000,stroop_artemis_2025.2.3,2025.2.4,Win32,60.24096386,,,,,,,,,,,,,,,,,,,,,,,,,,,,,,,,,,,,,,,,,,,,,,,,,,,,,,,,,,,,,,,,,,,,,,,,,,,,,,,,,,,,,,,,,,,,,,,,,,,,,,,,,,,,,,,,,,,,,,hostile,blue,1.134,163.0444,164.2925,"[""j""]",[0.5790000000000077],[null],[],[],[],[],[],[],[],0,89,89,89,1,emotional,124,Negx4,negative,1,,,,,,,,,,,,,,,,
,,,,,,,,,,,,,,,,,,test1,0,2020-01-01_00h00.00.000,stroop_artemis_2025.2.3,2025.2.4,Win32,60.24096386,,,,,,,,,,,,,,,,,,,,,,,,,,,,,,,,,,,,,,,,,,,,,,,,,,,,,,,,,,,,,,,,,,,,,,,,,,,,,,,,,,,,,,,,,,,,,,,,,,,,,,,,,,,,,,,,,,,,,,angry,blue,1.2,164.2934,165.6092,"[""j""]",[0.5290999999996302],[null],[],[],[],[],[],[],[],0,90,90,90,1,emotional,124,Negx4,negative,0,,,,,,,,,,,,,,,,
,,,,,,,,,,,,,,,,,,test1,0,2020-01-01_00h00.00.000,stroop_artemis_2025.2.3,2025.2.4,Win32,60.24096386,,,,,,,,,,,,,,,,,,,,,,,,,,,,,,,,,,,,,,,,,,,,,,,,,,,,,,,,,,,,,,,,,,,,,,,,,,,,,,,,,,,,,,,,,,,,,,,,,,,,,,,,,,,,,,,,,,,,,,lazy,blue,1.1,165.6107,166.8252,"[""j""]",[0.3628000000007603],[null],[],[],[],[],[],[],[],0,91,91,91,1,emotional,124,Negx4,negative,0,NegNoSwitch,,,,,,,,,,,,,,,
,,,,,,,,,,,,,,,,,,test1,0,2020-01-01_00h00.00.000,stroop_artemis_2025.2.3,2025.2.4,Win32,60.24096386,,,,,,,,,,,,,,,,,,,,,,,,,,,,,,,,,,,,,,,,,,,,,,,,,,,,,,,,,,,,,,,,,,,,,,,,,,,,,,,,,,,,,,,,,,,,,,,,,,,,,,,,,,,,,,,,,,,,,,urgency,hotpink,1.184,166.8264,168.1243,"[""l""]",[0.5349999999999966],[null],[],[],[],[],[],[],[],0,92,92,92,1,emotional,125,Neutx5_Neg,neutral,1,,,,,,,,,,,,,,,,
,,,,,,,,,,,,,,,,,,test1,0,2020-01-01_00h00.00.000,stroop_artemis_2025.2.3,2025.2.4,Win32,60.24096386,,,,,,,,,,,,,,,,,,,,,,,,,,,,,,,,,,,,,,,,,,,,,,,,,,,,,,,,,,,,,,,,,,,,,,,,,,,,,,,,,,,,,,,,,,,,,,,,,,,,,,,,,,,,,,,,,,,,,,shout,hotpink,1.2,168.1254,169.4403,"[""l""]",[0.6845999999996195],[null],[],[],[],[],[],[],[],0,93,93,93,1,emotional,125,Neutx5_Neg,neutral,0,,,,,,,,,,,,,,,,
,,,,,,,,,,,,,,,,,,test1,0,2020-01-01_00h00.00.000,stroop_artemis_2025.2.3,2025.2.4,Win32,60.24096386,,,,,,,,,,,,,,,,,,,,,,,,,,,,,,,,,,,,,,,,,,,,,,,,,,,,,,,,,,,,,,,,,,,,,,,,,,,,,,,,,,,,,,,,,,,,,,,,,,,,,,,,,,,,,,,,,,,,,,foolish,hotpink,1.05,169.4414,170.6064,,,,[],[],[],[],[],[],[],0,94,94,94,1,emotional,125,Neutx5_Neg,negative,0,NeutNegNoSwitch,,,,,,,,,,,,,,,
,,,,,,,,,,,,,,,,,,test1,0,2020-01-01_00h00.00.000,stroop_artemis_2025.2.3,2025.2.4,Win32,60.24096386,,,,,,,,,,,,,,,,,,,,,,,,,,,,,,,,,,,,,,,,,,,,,,,,,,,,,,,,,,,,,,,,,,,,,,,,,,,,,,,,,,,,,,,,,,,,,,,,,,,,,,,,,,,,,,,,,,,,,,friendship,blue,1.084,170.6076,171.806,"[""l"",""j""]","[0.146299999999826,0.6154999999999973]","[null,null]",[],[],[],[],[],[],[],0,95,95,95,1,emotional,126,Posx2,positive,1,,,,,,,,,,,,,,,,
,,,,,,,,,,,,,,,,,,test1,0,2020-01-01_00h00.00.000,stroop_artemis_2025.2.3,2025.2.4,Win32,60.24096386,,,,,,,,,,,,,,,,,,,,,,,,,,,,,,,,,,,,,,,,,,,,,,,,,,,,,,,,,,,,,,,,,,,,,,,,,,,,,,,,,,,,,,,,,,,,,,,,,,,,,,,,,,,,,,,,,,,,,,brave,blue,1.117,171.807,173.0387,"[""j""]",[0.43549999999999045],[null],[],[],[],[],[],[],[],0,96,96,96,1,emotional,126,Posx2,positive,0,PosNoSwitch,,,,,,,,,,,,,,,
,,,,,,,,,,,,,,,,,,test1,0,2020-01-01_00h00.00.000,stroop_artemis_2025.2.3,2025.2.4,Win32,60.24096386,,,,,,,,,,,,,,,,,,,,,,,,,,,,,,,,,,,,,,,,,,,,,,,,,,,,,,,,,,,,,,,,,,,,,,,,,,,,,,,,,,,,,,,,,,,,,,,,,,,,,,,,,,,,,,,,,,,,,,vase,hotpink,1.034,173.0398,174.1883,"[""l""]",[0.4878999999994562],[null],[],[],[],[],[],[],[],0,97,97,97,1,emotional,127,Neutx2_Neg,neutral,1,,,,,,,,,,,,,,,,
,,,,,,,,,,,,,,,,,,test1,0,2020-01-01_00h00.00.000,stroop_artemis_2025.2.3,2025.2.4,Win32,60.24096386,,,,,,,,,,,,,,,,,,,,,,,,,,,,,,,,,,,,,,,,,,,,,,,,,,,,,,,,,,,,,,,,,,,,,,,,,,,,,,,,,,,,,,,,,,,,,,,,,,,,,,,,,,,,,,,,,,,,,,tiny,hotpink,1.15,174.1894,175.4543,"[""l""]",[1.0061000000005436],[null],[],[],[],[],[],[],[],0,98,98,98,1,emotional,127,Neutx2_Neg,neutral,0,,,,,,,,,,,,,,,,
,,,,,,,,,,,,,,,,,,test1,0,2020-01-01_00h00.00.000,stroop_artemis_2025.2.3,2025.2.4,Win32,60.24096386,,,,,,,,,,,,,,,,,,,,,,,,,,,,,,,,,,,,,,,,,,,,,,,,,,,,,,,,,,,,,,,,,,,,,,,,,,,,,,,,,,,,,,,,,,,,,,,,,,,,,,,,,,,,,,,,,,,,,,guilt,hotpink,1.017,175.4555,176.5881,"[""l""]",[1.0276000000005467],[null],[],[],[],[],[],[],[],0,99,99,99,1,emotional,127,Neutx2_Neg,negative,0,NeutNegNoSwitch,,,,,,,,,,,,,,,
,,,,,,,,,,,,,,,,,,test1,0,2020-01-01_00h00.00.000,stroop_artemis_2025.2.3,2025.2.4,Win32,60.24096386,,,,,,,,,,,,,,,,,,,,,,,,,,,,,,,,,,,,,,,,,,,,,,,,,,,,,,,,,,,,,,,,,,,,,,,,,,,,,,,,,,,,,,,,,,,,,,,,,,,,,,,,,,,,,,,,,,,,,,wheat,saddlebrown,1.067,176.59,177.7705,,,,[],[],[],[],[],[],[],0,100,100,100,1,emotional,128,Neutx2_Pos,neutral,1,,,,,,,,,,,,,,,,
,,,,,,,,,,,,,,,,,,test1,0,2020-01-01_00h00.00.000,stroop_artemis_2025.2.3,2025.2.4,Win32,60.24096386,,,,,,,,,,,,,,,,,,,,,,,,,,,,,,,,,,,,,,,,,,,,,,,,,,,,,,,,,,,,,,,,,,,,,,,,,,,,,,,,,,,,,,,,,,,,,,,,,,,,,,,,,,,,,,,,,,,,,,iceberg,saddlebrown,1.167,177.7717,179.0529,"[""k"",""k""]","[0.25709999999963884,0.570099999999627]","[null,null]",[],[],[],[],[],[],[],0,101,101,101,1,emotional,128,Neutx2_Pos,neutral,0,,,,,,,,,,,,,,,,
,,,,,,,,,,,,,,,,,,test1,0,2020-01-01_00h00.00.000,stroop_artemis_2025.2.3,2025.2.4,Win32,60.24096386,,,,,,,,,,,,,,,,,,,,,,,,,,,,,,,,,,,,,,,,,,,,,,,,,,,,,,,,,,,,,,,,,,,,,,,,,,,,,,,,,,,,,,,,,,,,,,,,,,,,,,,,,,,,,,,,,,,,,,secure,saddlebrown,1.134,179.054,180.3023,"[""k""]",[0.3809000000003664],[null],[],[],[],[],[],[],[],0,102,102,102,1,emotional,128,Neutx2_Pos,positive,0,NeutPosNoSwitch,,,,,,,,,,,,,,,
,,,,,,,,,,,,,,,,,,test1,0,2020-01-01_00h00.00.000,stroop_artemis_2025.2.3,2025.2.4,Win32,60.24096386,,,,,,,,,,,,,,,,,,,,,,,,,,,,,,,,,,,,,,,,,,,,,,,,,,,,,,,,,,,,,,,,,,,,,,,,,,,,,,,,,,,,,,,,,,,,,,,,,,,,,,,,,,,,,,,,,,,,,,motor,hotpink,1,180.3034,181.4188,"[""l""]",[0.5379999999999825],[null],[],[],[],[],[],[],[],0,103,103,103,1,emotional,129,Neutx1_Pos,neutral,1,,,,,,,,,,,,,,,,
,,,,,,,,,,,,,,,,,,test1,0,2020-01-01_00h00.00.000,stroop_artemis_2025.2.3,2025.2.4,Win32,60.24096386,,,,,,,,,,,,,,,,,,,,,,,,,,,,,,,,,,,,,,,,,,,,,,,,,,,,,,,,,,,,,,,,,,,,,,,,,,,,,,,,,,,,,,,,,,,,,,,,,,,,,,,,,,,,,,,,,,,,,,noble,hotpink,1.134,181.4197,182.6679,"[""l""]",[0.5400999999996259],[null],[],[],[],[],[],[],[],0,104,104,104,1,emotional,129,Neutx1_Pos,positive,0,NeutPosNoSwitch,,,,,,,,,,,,,,,
,,,,,,,,,,,,,,,,,,test1,0,2020-01-01_00h00.00.000,stroop_artemis_2025.2.3,2025.2.4,Win32,60.24096386,,,,,,,,,,,,,,,,,,,,,,,,,,,,,,,,,,,,,,,,,,,,,,,,,,,,,,,,,,,,,,,,,,,,,,,,,,,,,,,,,,,,,,,,,,,,,,,,,,,,,,,,,,,,,,,,,,,,,,sidewalk,saddlebrown,1.2,182.6693,183.9841,"[""k""]",[0.5714000000003807],[null],[],[],[],[],[],[],[],0,105,105,105,1,emotional,130,Neutx4_Neg,neutral,1,,,,,,,,,,,,,,,,
,,,,,,,,,,,,,,,,,,test1,0,2020-01-01_00h00.00.000,stroop_artemis_2025.2.3,2025.2.4,Win32,60.24096386,,,,,,,,,,,,,,,,,,,,,,,,,,,,,,,,,,,,,,,,,,,,,,,,,,,,,,,,,,,,,,,,,,,,,,,,,,,,,,,,,,,,,,,,,,,,,,,,,,,,,,,,,,,,,,,,,,,,,,decorate,saddlebrown,1.084,183.9855,185.1836,"[""k""]",[0.6972999999998137],[null],[],[],[],[],[],[],[],0,106,106,106,1,emotional,130,Neutx4_Neg,neutral,0,,,,,,,,,,,,,,,,
,,,,,,,,,,,,,,,,,,test1,0,2020-01-01_00h00.00.000,stroop_artemis_2025.2.3,2025.2.4,Win32,60.24096386,,,,,,,,,,,,,,,,,,,,,,,,,,,,,,,,,,,,,,,,,,,,,,,,,,,,,,,,,,,,,,,,,,,,,,,,,,,,,,,,,,,,,,,,,,,,,,,,,,,,,,,,,,,,,,,,,,,,,,coffin,saddlebrown,1.184,185.1861,186.4829,"[""k""]",[0.45429999999981874],[null],[],[],[],[],[],[],[],0,107,107,107,1,emotional,130,Neutx4_Neg,negative,0,NeutNegNoSwitch,,,,,,,,,,,,,,,
,,,,,,,,,,,,,,,,,,test1,0,2020-01-01_00h00.00.000,stroop_artemis_2025.2.3,2025.2.4,Win32,60.24096386,,,,,,,,,,,,,,,,,,,,,,,,,,,,,,,,,,,,,,,,,,,,,,,,,,,,,,,,,,,,,,,,,,,,,,,,,,,,,,,,,,,,,,,,,,,,,,,,,,,,,,,,,,,,,,,,,,,,,,fryer,hotpink,1,186.484,187.5991,"[""l""]",[0.5297000000001901],[null],[],[],[],[],[],[],[],0,108,108,108,1,emotional,131,Neutx2_Neg,neutral,1,,,,,,,,,,,,,,,,
,,,,,,,,,,,,,,,,,,test1,0,2020-01-01_00h00.00.000,stroop_artemis_2025.2.3,2025.2.4,Win32,60.24096386,,,,,,,,,,,,,,,,,,,,,,,,,,,,,,,,,,,,,,,,,,,,,,,,,,,,,,,,,,,,,,,,,,,,,,,,,,,,,,,,,,,,,,,,,,,,,,,,,,,,,,,,,,,,,,,,,,,,,,braid,hotpink,1.017,187.6001,188.732,"[""l""]",[0.9397999999997921],[null],[],[],[],[],[],[],[],0,109,109,109,1,emotional,131,Neutx2_Neg,neutral,0,,,,,,,,,,,,,,,,
,,,,,,,,,,,,,,,,,,test1,0,2020-01-01_00h00.00.000,stroop_artemis_2025.2.3,2025.2.4,Win32,60.24096386,,,,,,,,,,,,,,,,,,,,,,,,,,,,,,,,,,,,,,,,,,,,,,,,,,,,,,,,,,,,,,,,,,,,,,,,,,,,,,,,,,,,,,,,,,,,,,,,,,,,,,,,,,,,,,,,,,,,,,evil,saddlebrown,1.15,188.7332,189.9982,"[""k""]",[0.6998999999994453],[null],[],[],[],[],[],[],[],0,110,110,110,1,emotional,131,Neutx2_Neg,negative,1,NeutNegSwitch,,,,,,,,,,,,,,,
,,,,,,,,,,,,,,,,,,test1,0,2020-01-01_00h00.00.000,stroop_artemis_2025.2.3,2025.2.4,Win32,60.24096386,,,,,,,,,,,,,,,,,,,,,,,,,,,,,,,,,,,,,,,,,,,,,,,,,,,,,,,,,,,,,,,,,,,,,,,,,,,,,,,,,,,,,,,,,,,,,,,,,,,,,,,,,,,,,,,,,,,,,,pleasant,blue,1.1,189.9997,191.2142,"[""j""]",[0.5527999999998201],[null],[],[],[],[],[],[],[],0,111,111,111,1,emotional,132,Posx4,positive,1,,,,,,,,,,,,,,,,
,,,,,,,,,,,,,,,,,,test1,0,2020-01-01_00h00.00.000,stroop_artemis_2025.2.3,2025.2.4,Win32,60.24096386,,,,,,,,,,,,,,,,,,,,,,,,,,,,,,,,,,,,,,,,,,,,,,,,,,,,,,,,,,,,,,,,,,,,,,,,,,,,,,,,,,,,,,,,,,,,,,,,,,,,,,,,,,,,,,,,,,,,,,lucky,blue,1.167,191.2155,192.4969,"[""j""]",[0.2672000000002015],[null],[],[],[],[],[],[],[],0,112,112,112,1,emotional,132,Posx4,positive,0,,,,,,,,,,,,,,,,
,,,,,,,,,,,,,,,,,,test1,0,2020-01-01_00h00.00.000,stroop_artemis_2025.2.3,2025.2.4,Win32,60.24096386,,,,,,,,,,,,,,,,,,,,,,,,,,,,,,,,,,,,,,,,,,,,,,,,,,,,,,,,,,,,,,,,,,,,,,,,,,,,,,,,,,,,,,,,,,,,,,,,,,,,,,,,,,,,,,,,,,,,,,service,blue,1.05,192.4982,193.6632,"[""j""]",[0.32799999999997453],[null],[],[],[],[],[],[],[],0,113,113,113,1,emotional,132,Posx4,positive,0,PosNoSwitch,,,,,,,,,,,,,,,
,,,,,,,,,,,,,,,,,,test1,0,2020-01-01_00h00.00.000,stroop_artemis_2025.2.3,2025.2.4,Win32,60.24096386,,,,,,,,,,,,,,,,,,,,,,,,,,,,,,,,,,,,,,,,,,,,,,,,,,,,,,,,,,,,,,,,,,,,,,,,,,,,,,,,,,,,,,,,,,,,,,,,,,,,,,,,,,,,,,,,,,,,,,other,hotpink,1.067,193.6646,194.8466,"[""l""]",[0.4738000000007503],[null],[],[],[],[],[],[],[],0,114,114,114,1,emotional,133,Neutx2_Pos,neutral,1,,,,,,,,,,,,,,,,
,,,,,,,,,,,,,,,,,,test1,0,2020-01-01_00h00.00.000,stroop_artemis_2025.2.3,2025.2.4,Win32,60.24096386,,,,,,,,,,,,,,,,,,,,,,,,,,,,,,,,,,,,,,,,,,,,,,,,,,,,,,,,,,,,,,,,,,,,,,,,,,,,,,,,,,,,,,,,,,,,,,,,,,,,,,,,,,,,,,,,,,,,,,paper,hotpink,1.117,194.8476,196.0791,"[""l""]",[0.5952000000002045],[null],[],[],[],[],[],[],[],0,115,115,115,1,emotional,133,Neutx2_Pos,neutral,0,,,,,,,,,,,,,,,,
,,,,,,,,,,,,,,,,,,test1,0,2020-01-01_00h00.00.000,stroop_artemis_2025.2.3,2025.2.4,Win32,60.24096386,,,,,,,,,,,,,,,,,,,,,,,,,,,,,,,,,,,,,,,,,,,,,,,,,,,,,,,,,,,,,,,,,,,,,,,,,,,,,,,,,,,,,,,,,,,,,,,,,,,,,,,,,,,,,,,,,,,,,,wealth,hotpink,1.034,196.0805,197.2283,"[""l""]",[0.4687000000001831],[null],[],[],[],[],[],[],[],0,116,116,116,1,emotional,133,Neutx2_Pos,positive,0,NeutPosNoSwitch,,,,,,,,,,,,,,,
,,,,,,,,,,,,,,,,,,test1,0,2020-01-01_00h00.00.000,stroop_artemis_2025.2.3,2025.2.4,Win32,60.24096386,,,,,,,,,,,,,,,,,,,,,,,,,,,,,,,,,,,,,,,,,,,,,,,,,,,,,,,,,,,,,,,,,,,,,,,,,,,,,,,,,,,,,,,,,,,,,,,,,,,,,,,,,,,,,,,,,,,,,,plate,blue,1.017,197.2294,198.3611,"[""j""]",[0.9825000000000159],[null],[],[],[],[],[],[],[],0,117,117,117,1,emotional,134,Neutx4_Pos,neutral,1,,,,,,,,,,,,,,,,
,,,,,,,,,,,,,,,,,,test1,0,2020-01-01_00h00.00.000,stroop_artemis_2025.2.3,2025.2.4,Win32,60.24096386,,,,,,,,,,,,,,,,,,,,,,,,,,,,,,,,,,,,,,,,,,,,,,,,,,,,,,,,,,,,,,,,,,,,,,,,,,,,,,,,,,,,,,,,,,,,,,,,,,,,,,,,,,,,,,,,,,,,,,devour,blue,1.117,198.3625,199.5943,"[""j""]",[0.44570000000018695],[null],[],[],[],[],[],[],[],0,118,118,118,1,emotional,134,Neutx4_Pos,neutral,0,,,,,,,,,,,,,,,,
,,,,,,,,,,,,,,,,,,test1,0,2020-01-01_00h00.00.000,stroop_artemis_2025.2.3,2025.2.4,Win32,60.24096386,,,,,,,,,,,,,,,,,,,,,,,,,,,,,,,,,,,,,,,,,,,,,,,,,,,,,,,,,,,,,,,,,,,,,,,,,,,,,,,,,,,,,,,,,,,,,,,,,,,,,,,,,,,,,,,,,,,,,,love,blue,1.167,199.5956,200.8766,"[""j""]",[0.5467999999998199],[null],[],[],[],[],[],[],[],0,119,119,119,1,emotional,134,Neutx4_Pos,positive,0,NeutPosNoSwitch,,,,,,,,,,,,,,,
,,,,,,,,,,,,,,,,,,test1,0,2020-01-01_00h00.00.000,stroop_artemis_2025.2.3,2025.2.4,Win32,60.24096386,,,,,,,,,,,,,,,,,,,,,,,,,,,,,,,,,,,,,,,,,,,,,,,,,,,,,,,,,,,,,,,,,,,,,,,,,,,,,,,,,,,,,,,,,,,,,,,,,,,,,,,,,,,,,,,,,,,,,,verbal,saddlebrown,1.1,200.878,202.093,"[""l""]",[0.5968000000007407],[null],[],[],[],[],[],[],[],0,120,120,120,1,emotional,135,Neutx2_Pos,neutral,1,,,,,,,,,,,,,,,,
,,,,,,,,,,,,,,,,,,test1,0,2020-01-01_00h00.00.000,stroop_artemis_2025.2.3,2025.2.4,Win32,60.24096386,,,,,,,,,,,,,,,,,,,,,,,,,,,,,,,,,,,,,,,,,,,,,,,,,,,,,,,,,,,,,,,,,,,,,,,,,,,,,,,,,,,,,,,,,,,,,,,,,,,,,,,,,,,,,,,,,,,,,,freeway,saddlebrown,1.034,202.094,203.2425,"[""k""]",[0.7069999999999936],[null],[],[],[],[],[],[],[],0,121,121,121,1,emotional,135,Neutx2_Pos,neutral,0,,,,,,,,,,,,,,,,
,,,,,,,,,,,,,,,,,,test1,0,2020-01-01_00h00.00.000,stroop_artemis_2025.2.3,2025.2.4,Win32,60.24096386,,,,,,,,,,,,,,,,,,,,,,,,,,,,,,,,,,,,,,,,,,,,,,,,,,,,,,,,,,,,,,,,,,,,,,,,,,,,,,,,,,,,,,,,,,,,,,,,,,,,,,,,,,,,,,,,,,,,,,treasure,hotpink,1.15,203.2437,204.5084,"[""l""]",[0.4964999999999975],[null],[],[],[],[],[],[],[],0,122,122,122,1,emotional,135,Neutx2_Pos,positive,1,NeutPosSwitch,,,,,,,,,,,,,,,
,,,,,,,,,,,,,,,,,,test1,0,2020-01-01_00h00.00.000,stroop_artemis_2025.2.3,2025.2.4,Win32,60.24096386,,,,,,,,,,,,,,,,,,,,,,,,,,,,,,,,,,,,,,,,,,,,,,,,,,,,,,,,,,,,,,,,,,,,,,,,,,,,,,,,,,,,,,,,,,,,,,,,,,,,,,,,,,,,,,,,,,,,,,stomach,blue,1.184,204.5094,205.8079,"[""j""]",[0.4847999999998365],[null],[],[],[],[],[],[],[],0,123,123,123,1,emotional,136,Neutx5_Pos,neutral,1,,,,,,,,,,,,,,,,
,,,,,,,,,,,,,,,,,,test1,0,2020-01-01_00h00.00.000,stroop_artemis_2025.2.3,2025.2.4,Win32,60.24096386,,,,,,,,,,,,,,,,,,,,,,,,,,,,,,,,,,,,,,,,,,,,,,,,,,,,,,,,,,,,,,,,,,,,,,,,,,,,,,,,,,,,,,,,,,,,,,,,,,,,,,,,,,,,,,,,,,,,,,measure,blue,1.05,205.8091,206.9743,"[""k""]",[0.7151000000005752],[null],[],[],[],[],[],[],[],0,124,124,124,1,emotional,136,Neutx5_Pos,neutral,0,,,,,,,,,,,,,,,,
,,,,,,,,,,,,,,,,,,test1,0,2020-01-01_00h00.00.000,stroop_artemis_2025.2.3,2025.2.4,Win32,60.24096386,,,,,,,,,,,,,,,,,,,,,,,,,,,,,,,,,,,,,,,,,,,,,,,,,,,,,,,,,,,,,,,,,,,,,,,,,,,,,,,,,,,,,,,,,,,,,,,,,,,,,,,,,,,,,,,,,,,,,,generous,hotpink,1.067,206.9756,208.1569,"[""l""]",[0.570999999999998],[null],[],[],[],[],[],[],[],0,125,125,125,1,emotional,136,Neutx5_Pos,positive,1,NeutPosSwitch,,,,,,,,,,,,,,,
,,,,,,,,,,,,,,,,,,test1,0,2020-01-01_00h00.00.000,stroop_artemis_2025.2.3,2025.2.4,Win32,60.24096386,,,,,,,,,,,,,,,,,,,,,,,,,,,,,,,,,,,,,,,,,,,,,,,,,,,,,,,,,,,,,,,,,,,,,,,,,,,,,,,,,,,,,,,,,,,,,,,,,,,,,,,,,,,,,,,,,,,,,,spinner,saddlebrown,1.084,208.1581,209.3565,"[""k""]",[0.8525999999996259],[null],[],[],[],[],[],[],[],0,126,126,126,1,emotional,137,Neutx5_Pos,neutral,1,,,,,,,,,,,,,,,,
,,,,,,,,,,,,,,,,,,test1,0,2020-01-01_00h00.00.000,stroop_artemis_2025.2.3,2025.2.4,Win32,60.24096386,,,,,,,,,,,,,,,,,,,,,,,,,,,,,,,,,,,,,,,,,,,,,,,,,,,,,,,,,,,,,,,,,,,,,,,,,,,,,,,,,,,,,,,,,,,,,,,,,,,,,,,,,,,,,,,,,,,,,,display,saddlebrown,1,209.358,210.4726,"[""k""]",[0.5113999999994405],[null],[],[],[],[],[],[],[],0,127,127,127,1,emotional,137,Neutx5_Pos,neutral,0,,,,,,,,,,,,,,,,
,,,,,,,,,,,,,,,,,,test1,0,2020-01-01_00h00.00.000,stroop_artemis_2025.2.3,2025.2.4,Win32,60.24096386,,,,,,,,,,,,,,,,,,,,,,,,,,,,,,,,,,,,,,,,,,,,,,,,,,,,,,,,,,,,,,,,,,,,,,,,,,,,,,,,,,,,,,,,,,,,,,,,,,,,,,,,,,,,,,,,,,,,,,talented,saddlebrown,1.2,210.4736,211.789,"[""k""]",[0.4616999999992686],[null],[],[],[],[],[],[],[],0,128,128,128,1,emotional,137,Neutx5_Pos,positive,0,NeutPosNoSwitch,,,,,,,,,,,,,,,
,,,,,,,,,,,,,,,,,,test1,0,2020-01-01_00h00.00.000,stroop_artemis_2025.2.3,2025.2.4,Win32,60.24096386,,,,,,,,,,,,,,,,,,,,,,,,,,,,,,,,,,,,,,,,,,,,,,,,,,,,,,,,,,,,,,,,,,,,,,,,,,,,,,,,,,,,,,,,,,,,,,,,,,,,,,,,,,,,,,,,,,,,,,hero,saddlebrown,1.134,211.7906,213.0382,"[""k""]",[0.0005000000000165983],[null],[],[],[],[],[],[],[],0,129,129,129,1,emotional,138,Posx4,positive,0,,,,,,,,,,,,,,,,
,,,,,,,,,,,,,,,,,,test1,0,2020-01-01_00h00.00.000,stroop_artemis_2025.2.3,2025.2.4,Win32,60.24096386,,,,,,,,,,,,,,,,,,,,,,,,,,,,,,,,,,,,,,,,,,,,,,,,,,,,,,,,,,,,,,,,,,,,,,,,,,,,,,,,,,,,,,,,,,,,,,,,,,,,,,,,,,,,,,,,,,,,,,loyal,blue,1.084,213.0396,214.2376,"[""j""]",[0.4652999999998144],[null],[],[],[],[],[],[],[],0,130,130,130,1,emotional,138,Posx4,positive,1,PosSwitch,,,,,,,,,,,,,,,
,,,,,,,,,,,,,,,,,,test1,0,2020-01-01_00h00.00.000,stroop_artemis_2025.2.3,2025.2.4,Win32,60.24096386,,,,,,,,,,,,,,,,,,,,,,,,,,,,,,,,,,,,,,,,,,,,,,,,,,,,,,,,,,,,,,,,,,,,,,,,,,,,,,,,,,,,,,,,,,,,,,,,,,,,,,,,,,,,,,,,,,,,,,,,,,,,,,,,,,,,,,,,,,,,,,,,214.238,229.2314,229.2316,230.4307,0,0,0,2,1,emotional,conditions_emotional1.xlsx,"slice(141,272)","""141:272""",,
,,,,,,,,,,,,,,,,,,test1,0,2020-01-01_00h00.00.000,stroop_artemis_2025.2.3,2025.2.4,Win32,60.24096386,,,,,,,,,,,,,,,,,,,,,,,,,,,,,,,,,,,,,,,,,,,,,,,,,,,,,,,,,,,,,,,,,,,,,,,,,,,,,,,,,,,,,,,,,,,,,,,,,,,,,,,,,,,,,,,,,,,,,,XXX,blue,1,230.4474,231.5635,"[""j""]",[0.9542000000001849],[null],[],[],[],[],[],[],[],0,0,0,0,1,classic,44,NI,neutral,,,,,,,,,,,,,,,,,
,,,,,,,,,,,,,,,,,,test1,0,2020-01-01_00h00.00.000,stroop_artemis_2025.2.3,2025.2.4,Win32,60.24096386,,,,,,,,,,,,,,,,,,,,,,,,,,,,,,,,,,,,,,,,,,,,,,,,,,,,,,,,,,,,,,,,,,,,,,,,,,,,,,,,,,,,,,,,,,,,,,,,,,,,,,,,,,,,,,,,,,,,,,PINK,saddlebrown,1.017,231.5648,232.6964,"[""l""]",[0.9117000000001951],[null],[],[],[],[],[],[],[],0,1,1,1,1,classic,44,NI,incongruent,,,,,,,,,,,,,,,,,
,,,,,,,,,,,,,,,,,,test1,0,2020-01-01_00h00.00.000,stroop_artemis_2025.2.3,2025.2.4,Win32,60.24096386,,,,,,,,,,,,,,,,,,,,,,,,,,,,,,,,,,,,,,,,,,,,,,,,,,,,,,,,,,,,,,,,,,,,,,,,,,,,,,,,,,,,,,,,,,,,,,,,,,,,,,,,,,,,,,,,,,,,,,BLUE,blue,1.2,232.6976,234.0123,"[""j""]",[0.9403000000007182],[null],[],[],[],[],[],[],[],0,2,2,2,1,classic,45,C6I,congruent,,,,,,,,,,,,,,,,,
,,,,,,,,,,,,,,,,,,test1,0,2020-01-01_00h00.00.000,stroop_artemis_2025.2.3,2025.2.4,Win32,60.24096386,,,,,,,,,,,,,,,,,,,,,,,,,,,,,,,,,,,,,,,,,,,,,,,,,,,,,,,,,,,,,,,,,,,,,,,,,,,,,,,,,,,,,,,,,,,,,,,,,,,,,,,,,,,,,,,,,,,,,,BROWN,saddlebrown,1.034,234.0152,235.1621,"[""k""]",[0.38109999999963406],[null],[],[],[],[],[],[],[],0,3,3,3,1,classic,45,C6I,congruent,,,,,,,,,,,,,,,,,
,,,,,,,,,,,,,,,,,,test1,0,2020-01-01_00h00.00.000,stroop_artemis_2025.2.3,2025.2.4,Win32,60.24096386,,,,,,,,,,,,,,,,,,,,,,,,,,,,,,,,,,,,,,,,,,,,,,,,,,,,,,,,,,,,,,,,,,,,,,,,,,,,,,,,,,,,,,,,,,,,,,,,,,,,,,,,,,,,,,,,,,,,,,PINK,hotpink,1.184,235.1635,236.4614,"[""l""]",[0.48939999999942074],[null],[],[],[],[],[],[],[],0,4,4,4,1,classic,45,C6I,congruent,,,,,,,,,,,,,,,,,
,,,,,,,,,,,,,,,,,,test1,0,2020-01-01_00h00.00.000,stroop_artemis_2025.2.3,2025.2.4,Win32,60.24096386,,,,,,,,,,,,,,,,,,,,,,,,,,,,,,,,,,,,,,,,,,,,,,,,,,,,,,,,,,,,,,,,,,,,,,,,,,,,,,,,,,,,,,,,,,,,,,,,,,,,,,,,,,,,,,,,,,,,,,BROWN,saddlebrown,1.05,236.4626,237.6275,"[""k""]",[0.49610000000055265],[null],[],[],[],[],[],[],[],0,5,5,5,1,classic,45,C6I,congruent,,,,,,,,,,,,,,,,,
,,,,,,,,,,,,,,,,,,test1,0,2020-01-01_00h00.00.000,stroop_artemis_2025.2.3,2025.2.4,Win32,60.24096386,,,,,,,,,,,,,,,,,,,,,,,,,,,,,,,,,,,,,,,,,,,,,,,,,,,,,,,,,,,,,,,,,,,,,,,,,,,,,,,,,,,,,,,,,,,,,,,,,,,,,,,,,,,,,,,,,,,,,,BLUE,blue,1.067,237.6286,238.8103,"[""j""]",[0.5117000000001894],[null],[],[],[],[],[],[],[],0,6,6,6,1,classic,45,C6I,congruent,,,,,,,,,,,,,,,,,
,,,,,,,,,,,,,,,,,,test1,0,2020-01-01_00h00.00.000,stroop_artemis_2025.2.3,2025.2.4,Win32,60.24096386,,,,,,,,,,,,,,,,,,,,,,,,,,,,,,,,,,,,,,,,,,,,,,,,,,,,,,,,,,,,,,,,,,,,,,,,,,,,,,,,,,,,,,,,,,,,,,,,,,,,,,,,,,,,,,,,,,,,,,PINK,hotpink,1.117,238.8115,240.0431,"[""l""]",[0.5247999999998285],[null],[],[],[],[],[],[],[],0,7,7,7,1,classic,45,C6I,congruent,,,,,,,,,,,,,,,,,
,,,,,,,,,,,,,,,,,,test1,0,2020-01-01_00h00.00.000,stroop_artemis_2025.2.3,2025.2.4,Win32,60.24096386,,,,,,,,,,,,,,,,,,,,,,,,,,,,,,,,,,,,,,,,,,,,,,,,,,,,,,,,,,,,,,,,,,,,,,,,,,,,,,,,,,,,,,,,,,,,,,,,,,,,,,,,,,,,,,,,,,,,,,BLUE,hotpink,1.167,240.0445,241.3258,"[""l""]",[0.9115999999996518],[null],[],[],[],[],[],[],[],0,8,8,8,1,classic,45,C6I,incongruent,,,,,,,,,,,,,,,,,
,,,,,,,,,,,,,,,,,,test1,0,2020-01-01_00h00.00.000,stroop_artemis_2025.2.3,2025.2.4,Win32,60.24096386,,,,,,,,,,,,,,,,,,,,,,,,,,,,,,,,,,,,,,,,,,,,,,,,,,,,,,,,,,,,,,,,,,,,,,,,,,,,,,,,,,,,,,,,,,,,,,,,,,,,,,,,,,,,,,,,,,,,,,XXXX,hotpink,1.1,241.3275,242.542,"[""l""]",[0.5270999999996491],[null],[],[],[],[],[],[],[],0,9,9,9,1,classic,46,N3I,neutral,,,,,,,,,,,,,,,,,
,,,,,,,,,,,,,,,,,,test1,0,2020-01-01_00h00.00.000,stroop_artemis_2025.2.3,2025.2.4,Win32,60.24096386,,,,,,,,,,,,,,,,,,,,,,,,,,,,,,,,,,,,,,,,,,,,,,,,,,,,,,,,,,,,,,,,,,,,,,,,,,,,,,,,,,,,,,,,,,,,,,,,,,,,,,,,,,,,,,,,,,,,,,XXXXX,saddlebrown,1.134,242.5434,243.7915,"[""k""]",[0.555499999999995],[null],[],[],[],[],[],[],[],0,10,10,10,1,classic,46,N3I,neutral,,,,,,,,,,,,,,,,,
,,,,,,,,,,,,,,,,,,test1,0,2020-01-01_00h00.00.000,stroop_artemis_2025.2.3,2025.2.4,Win32,60.24096386,,,,,,,,,,,,,,,,,,,,,,,,,,,,,,,,,,,,,,,,,,,,,,,,,,,,,,,,,,,,,,,,,,,,,,,,,,,,,,,,,,,,,,,,,,,,,,,,,,,,,,,,,,,,,,,,,,,,,,XXXX,hotpink,1.15,243.7928,245.0578,"[""l""]",[0.703599999999625],[null],[],[],[],[],[],[],[],0,11,11,11,1,classic,46,N3I,neutral,,,,,,,,,,,,,,,,,
,,,,,,,,,,,,,,,,,,test1,0,2020-01-01_00h00.00.000,stroop_artemis_2025.2.3,2025.2.4,Win32,60.24096386,,,,,,,,,,,,,,,,,,,,,,,,,,,,,,,,,,,,,,,,,,,,,,,,,,,,,,,,,,,,,,,,,,,,,,,,,,,,,,,,,,,,,,,,,,,,,,,,,,,,,,,,,,,,,,,,,,,,,,PINK,blue,1.05,245.0591,246.2238,"[""j""]",[0.7956000000005758],[null],[],[],[],[],[],[],[],0,12,12,12,1,classic,46,N3I,incongruent,,,,,,,,,,,,,,,,,
,,,,,,,,,,,,,,,,,,test1,0,2020-01-01_00h00.00.000,stroop_artemis_2025.2.3,2025.2.4,Win32,60.24096386,,,,,,,,,,,,,,,,,,,,,,,,,,,,,,,,,,,,,,,,,,,,,,,,,,,,,,,,,,,,,,,,,,,,,,,,,,,,,,,,,,,,,,,,,,,,,,,,,,,,,,,,,,,,,,,,,,,,,,PINK,hotpink,1.084,246.2243,247.4234,"[""l""]",[0.5717999999998256],[null],[],[],[],[],[],[],[],0,13,13,13,1,classic,47,C3I,congruent,,,,,,,,,,,,,,,,,
,,,,,,,,,,,,,,,,,,test1,0,2020-01-01_00h00.00.000,stroop_artemis_2025.2.3,2025.2.4,Win32,60.24096386,,,,,,,,,,,,,,,,,,,,,,,,,,,,,,,,,,,,,,,,,,,,,,,,,,,,,,,,,,,,,,,,,,,,,,,,,,,,,,,,,,,,,,,,,,,,,,,,,,,,,,,,,,,,,,,,,,,,,,BROWN,saddlebrown,1.134,247.426,248.6727,"[""k""]",[0.4923999999994635],[null],[],[],[],[],[],[],[],0,14,14,14,1,classic,47,C3I,congruent,,,,,,,,,,,,,,,,,
,,,,,,,,,,,,,,,,,,test1,0,2020-01-01_00h00.00.000,stroop_artemis_2025.2.3,2025.2.4,Win32,60.24096386,,,,,,,,,,,,,,,,,,,,,,,,,,,,,,,,,,,,,,,,,,,,,,,,,,,,,,,,,,,,,,,,,,,,,,,,,,,,,,,,,,,,,,,,,,,,,,,,,,,,,,,,,,,,,,,,,,,,,,BLUE,blue,1.117,248.6743,249.9056,"[""j""]",[0.46860000000057767],[null],[],[],[],[],[],[],[],0,15,15,15,1,classic,47,C3I,congruent,,,,,,,,,,,,,,,,,
,,,,,,,,,,,,,,,,,,test1,0,2020-01-01_00h00.00.000,stroop_artemis_2025.2.3,2025.2.4,Win32,60.24096386,,,,,,,,,,,,,,,,,,,,,,,,,,,,,,,,,,,,,,,,,,,,,,,,,,,,,,,,,,,,,,,,,,,,,,,,,,,,,,,,,,,,,,,,,,,,,,,,,,,,,,,,,,,,,,,,,,,,,,BROWN,hotpink,1.1,249.9068,251.1216,"[""l""]",[0.9052999999998406],[null],[],[],[],[],[],[],[],0,16,16,16,1,classic,47,C3I,incongruent,,,,,,,,,,,,,,,,,
,,,,,,,,,,,,,,,,,,test1,0,2020-01-01_00h00.00.000,stroop_artemis_2025.2.3,2025.2.4,Win32,60.24096386,,,,,,,,,,,,,,,,,,,,,,,,,,,,,,,,,,,,,,,,,,,,,,,,,,,,,,,,,,,,,,,,,,,,,,,,,,,,,,,,,,,,,,,,,,,,,,,,,,,,,,,,,,,,,,,,,,,,,,BLUE,blue,1.184,251.1228,252.4214,"[""j""]",[0.7102000000001567],[null],[],[],[],[],[],[],[],0,17,17,17,1,classic,48,C7I,congruent,,,,,,,,,,,,,,,,,
,,,,,,,,,,,,,,,,,,test1,0,2020-01-01_00h00.00.000,stroop_artemis_2025.2.3,2025.2.4,Win32,60.24096386,,,,,,,,,,,,,,,,,,,,,,,,,,,,,,,,,,,,,,,,,,,,,,,,,,,,,,,,,,,,,,,,,,,,,,,,,,,,,,,,,,,,,,,,,,,,,,,,,,,,,,,,,,,,,,,,,,,,,,PINK,hotpink,1,252.4226,253.5374,"[""l""]",[0.8149999999999977],[null],[],[],[],[],[],[],[],0,18,18,18,1,classic,48,C7I,congruent,,,,,,,,,,,,,,,,,
,,,,,,,,,,,,,,,,,,test1,0,2020-01-01_00h00.00.000,stroop_artemis_2025.2.3,2025.2.4,Win32,60.24096386,,,,,,,,,,,,,,,,,,,,,,,,,,,,,,,,,,,,,,,,,,,,,,,,,,,,,,,,,,,,,,,,,,,,,,,,,,,,,,,,,,,,,,,,,,,,,,,,,,,,,,,,,,,,,,,,,,,,,,BROWN,saddlebrown,1.167,253.5413,254.8201,"[""k""]",[0.5900000000000318],[null],[],[],[],[],[],[],[],0,19,19,19,1,classic,48,C7I,congruent,,,,,,,,,,,,,,,,,
,,,,,,,,,,,,,,,,,,test1,0,2020-01-01_00h00.00.000,stroop_artemis_2025.2.3,2025.2.4,Win32,60.24096386,,,,,,,,,,,,,,,,,,,,,,,,,,,,,,,,,,,,,,,,,,,,,,,,,,,,,,,,,,,,,,,,,,,,,,,,,,,,,,,,,,,,,,,,,,,,,,,,,,,,,,,,,,,,,,,,,,,,,,BLUE,blue,1.034,254.8211,255.9698,"[""j""]",[0.45919999999927086],[null],[],[],[],[],[],[],[],0,20,20,20,1,classic,48,C7I,congruent,,,,,,,,,,,,,,,,,
,,,,,,,,,,,,,,,,,,test1,0,2020-01-01_00h00.00.000,stroop_artemis_2025.2.3,2025.2.4,Win32,60.24096386,,,,,,,,,,,,,,,,,,,,,,,,,,,,,,,,,,,,,,,,,,,,,,,,,,,,,,,,,,,,,,,,,,,,,,,,,,,,,,,,,,,,,,,,,,,,,,,,,,,,,,,,,,,,,,,,,,,,,,BROWN,saddlebrown,1.017,255.9716,257.1025,"[""k""]",[0.5747999999998115],[null],[],[],[],[],[],[],[],0,21,21,21,1,classic,48,C7I,congruent,,,,,,,,,,,,,,,,,
,,,,,,,,,,,,,,,,,,test1,0,2020-01-01_00h00.00.000,stroop_artemis_2025.2.3,2025.2.4,Win32,60.24096386,,,,,,,,,,,,,,,,,,,,,,,,,,,,,,,,,,,,,,,,,,,,,,,,,,,,,,,,,,,,,,,,,,,,,,,,,,,,,,,,,,,,,,,,,,,,,,,,,,,,,,,,,,,,,,,,,,,,,,PINK,hotpink,1.067,257.1038,258.2853,"[""l""]",[0.5458000000007814],[null],[],[],[],[],[],[],[],0,22,22,22,1,classic,48,C7I,congruent,,,,,,,,,,,,,,,,,
,,,,,,,,,,,,,,,,,,test1,0,2020-01-01_00h00.00.000,stroop_artemis_2025.2.3,2025.2.4,Win32,60.24096386,,,,,,,,,,,,,,,,,,,,,,,,,,,,,,,,,,,,,,,,,,,,,,,,,,,,,,,,,,,,,,,,,,,,,,,,,,,,,,,,,,,,,,,,,,,,,,,,,,,,,,,,,,,,,,,,,,,,,,BROWN,saddlebrown,1.2,258.2866,259.6013,"[""k""]",[0.5042000000001963],[null],[],[],[],[],[],[],[],0,23,23,23,1,classic,48,C7I,congruent,,,,,,,,,,,,,,,,,
,,,,,,,,,,,,,,,,,,test1,0,2020-01-01_00h00.00.000,stroop_artemis_2025.2.3,2025.2.4,Win32,60.24096386,,,,,,,,,,,,,,,,,,,,,,,,,,,,,,,,,,,,,,,,,,,,,,,,,,,,,,,,,,,,,,,,,,,,,,,,,,,,,,,,,,,,,,,,,,,,,,,,,,,,,,,,,,,,,,,,,,,,,,BROWN,blue,1.15,259.602,260.8676,"[""k""]",[0.415600000000552],[null],[],[],[],[],[],[],[],0,24,24,24,1,classic,48,C7I,incongruent,,,,,,,,,,,,,,,,,
,,,,,,,,,,,,,,,,,,test1,0,2020-01-01_00h00.00.000,stroop_artemis_2025.2.3,2025.2.4,Win32,60.24096386,,,,,,,,,,,,,,,,,,,,,,,,,,,,,,,,,,,,,,,,,,,,,,,,,,,,,,,,,,,,,,,,,,,,,,,,,,,,,,,,,,,,,,,,,,,,,,,,,,,,,,,,,,,,,,,,,,,,,,XXX,blue,1.167,260.8698,262.1501,"[""j""]",[0.5531999999992081],[null],[],[],[],[],[],[],[],0,25,25,25,1,classic,49,NI,neutral,,,,,,,,,,,,,,,,,
,,,,,,,,,,,,,,,,,,test1,0,2020-01-01_00h00.00.000,stroop_artemis_2025.2.3,2025.2.4,Win32,60.24096386,,,,,,,,,,,,,,,,,,,,,,,,,,,,,,,,,,,,,,,,,,,,,,,,,,,,,,,,,,,,,,,,,,,,,,,,,,,,,,,,,,,,,,,,,,,,,,,,,,,,,,,,,,,,,,,,,,,,,,BLUE,saddlebrown,1.15,262.1512,263.4163,"[""k""]",[0.5537999999998533],[null],[],[],[],[],[],[],[],0,26,26,26,1,classic,49,NI,incongruent,,,,,,,,,,,,,,,,,
,,,,,,,,,,,,,,,,,,test1,0,2020-01-01_00h00.00.000,stroop_artemis_2025.2.3,2025.2.4,Win32,60.24096386,,,,,,,,,,,,,,,,,,,,,,,,,,,,,,,,,,,,,,,,,,,,,,,,,,,,,,,,,,,,,,,,,,,,,,,,,,,,,,,,,,,,,,,,,,,,,,,,,,,,,,,,,,,,,,,,,,,,,,BLUE,blue,1.017,263.417,264.5496,"[""j""]",[0.7007999999997878],[null],[],[],[],[],[],[],[],0,27,27,27,1,classic,50,C2I,congruent,,,,,,,,,,,,,,,,,
,,,,,,,,,,,,,,,,,,test1,0,2020-01-01_00h00.00.000,stroop_artemis_2025.2.3,2025.2.4,Win32,60.24096386,,,,,,,,,,,,,,,,,,,,,,,,,,,,,,,,,,,,,,,,,,,,,,,,,,,,,,,,,,,,,,,,,,,,,,,,,,,,,,,,,,,,,,,,,,,,,,,,,,,,,,,,,,,,,,,,,,,,,,PINK,hotpink,1.184,264.5509,265.8486,"[""l""]",[0.5326000000005706],[null],[],[],[],[],[],[],[],0,28,28,28,1,classic,50,C2I,congruent,,,,,,,,,,,,,,,,,
,,,,,,,,,,,,,,,,,,test1,0,2020-01-01_00h00.00.000,stroop_artemis_2025.2.3,2025.2.4,Win32,60.24096386,,,,,,,,,,,,,,,,,,,,,,,,,,,,,,,,,,,,,,,,,,,,,,,,,,,,,,,,,,,,,,,,,,,,,,,,,,,,,,,,,,,,,,,,,,,,,,,,,,,,,,,,,,,,,,,,,,,,,,BROWN,blue,1.2,265.8498,267.1647,"[""j""]",[0.8613000000007105],[null],[],[],[],[],[],[],[],0,29,29,29,1,classic,50,C2I,incongruent,,,,,,,,,,,,,,,,,
,,,,,,,,,,,,,,,,,,test1,0,2020-01-01_00h00.00.000,stroop_artemis_2025.2.3,2025.2.4,Win32,60.24096386,,,,,,,,,,,,,,,,,,,,,,,,,,,,,,,,,,,,,,,,,,,,,,,,,,,,,,,,,,,,,,,,,,,,,,,,,,,,,,,,,,,,,,,,,,,,,,,,,,,,,,,,,,,,,,,,,,,,,,PINK,hotpink,1.117,267.1657,268.3976,"[""l""]",[0.513100000000577],[null],[],[],[],[],[],[],[],0,30,30,30,1,classic,51,CI,congruent,,,,,,,,,,,,,,,,,
,,,,,,,,,,,,,,,,,,test1,0,2020-01-01_00h00.00.000,stroop_artemis_2025.2.3,2025.2.4,Win32,60.24096386,,,,,,,,,,,,,,,,,,,,,,,,,,,,,,,,,,,,,,,,,,,,,,,,,,,,,,,,,,,,,,,,,,,,,,,,,,,,,,,,,,,,,,,,,,,,,,,,,,,,,,,,,,,,,,,,,,,,,,PINK,blue,1.134,268.3982,269.6471,"[""l""]",[0.5442000000002167],[null],[],[],[],[],[],[],[],0,31,31,31,1,classic,51,CI,incongruent,,,,,,,,,,,,,,,,,
,,,,,,,,,,,,,,,,,,test1,0,2020-01-01_00h00.00.000,stroop_artemis_2025.2.3,2025.2.4,Win32,60.24096386,,,,,,,,,,,,,,,,,,,,,,,,,,,,,,,,,,,,,,,,,,,,,,,,,,,,,,,,,,,,,,,,,,,,,,,,,,,,,,,,,,,,,,,,,,,,,,,,,,,,,,,,,,,,,,,,,,,,,,BLUE,blue,1.067,269.6484,270.8298,"[""j""]",[0.4497000000001776],[null],[],[],[],[],[],[],[],0,32,32,32,1,classic,52,C3I,congruent,,,,,,,,,,,,,,,,,
,,,,,,,,,,,,,,,,,,test1,0,2020-01-01_00h00.00.000,stroop_artemis_2025.2.3,2025.2.4,Win32,60.24096386,,,,,,,,,,,,,,,,,,,,,,,,,,,,,,,,,,,,,,,,,,,,,,,,,,,,,,,,,,,,,,,,,,,,,,,,,,,,,,,,,,,,,,,,,,,,,,,,,,,,,,,,,,,,,,,,,,,,,,BROWN,saddlebrown,1.034,270.8311,271.9794,"[""k""]",[0.5944000000003484],[null],[],[],[],[],[],[],[],0,33,33,33,1,classic,52,C3I,congruent,,,,,,,,,,,,,,,,,
,,,,,,,,,,,,,,,,,,test1,0,2020-01-01_00h00.00.000,stroop_artemis_2025.2.3,2025.2.4,Win32,60.24096386,,,,,,,,,,,,,,,,,,,,,,,,,,,,,,,,,,,,,,,,,,,,,,,,,,,,,,,,,,,,,,,,,,,,,,,,,,,,,,,,,,,,,,,,,,,,,,,,,,,,,,,,,,,,,,,,,,,,,,BLUE,blue,1,271.9807,273.0956,"[""j""]",[0.6608000000007905],[null],[],[],[],[],[],[],[],0,34,34,34,1,classic,52,C3I,congruent,,,,,,,,,,,,,,,,,
,,,,,,,,,,,,,,,,,,test1,0,2020-01-01_00h00.00.000,stroop_artemis_2025.2.3,2025.2.4,Win32,60.24096386,,,,,,,,,,,,,,,,,,,,,,,,,,,,,,,,,,,,,,,,,,,,,,,,,,,,,,,,,,,,,,,,,,,,,,,,,,,,,,,,,,,,,,,,,,,,,,,,,,,,,,,,,,,,,,,,,,,,,,BLUE,hotpink,1.05,273.0962,274.2618,"[""l""]",[0.7792000000001735],[null],[],[],[],[],[],[],[],0,35,35,35,1,classic,52,C3I,incongruent,,,,,,,,,,,,,,,,,
,,,,,,,,,,,,,,,,,,test1,0,2020-01-01_00h00.00.000,stroop_artemis_2025.2.3,2025.2.4,Win32,60.24096386,,,,,,,,,,,,,,,,,,,,,,,,,,,,,,,,,,,,,,,,,,,,,,,,,,,,,,,,,,,,,,,,,,,,,,,,,,,,,,,,,,,,,,,,,,,,,,,,,,,,,,,,,,,,,,,,,,,,,,BROWN,saddlebrown,1.1,274.2635,275.478,"[""k""]",[0.6279999999999859],[null],[],[],[],[],[],[],[],0,36,36,36,1,classic,53,C2I,congruent,,,,,,,,,,,,,,,,,
,,,,,,,,,,,,,,,,,,test1,0,2020-01-01_00h00.00.000,stroop_artemis_2025.2.3,2025.2.4,Win32,60.24096386,,,,,,,,,,,,,,,,,,,,,,,,,,,,,,,,,,,,,,,,,,,,,,,,,,,,,,,,,,,,,,,,,,,,,,,,,,,,,,,,,,,,,,,,,,,,,,,,,,,,,,,,,,,,,,,,,,,,,,PINK,hotpink,1.084,275.4792,276.6773,"[""l""]",[0.6028999999994085],[null],[],[],[],[],[],[],[],0,37,37,37,1,classic,53,C2I,congruent,,,,,,,,,,,,,,,,,
,,,,,,,,,,,,,,,,,,test1,0,2020-01-01_00h00.00.000,stroop_artemis_2025.2.3,2025.2.4,Win32,60.24096386,,,,,,,,,,,,,,,,,,,,,,,,,,,,,,,,,,,,,,,,,,,,,,,,,,,,,,,,,,,,,,,,,,,,,,,,,,,,,,,,,,,,,,,,,,,,,,,,,,,,,,,,,,,,,,,,,,,,,,BROWN,hotpink,1.017,276.6783,277.8104,"[""l""]",[0.4283999999994421],[null],[],[],[],[],[],[],[],0,38,38,38,1,classic,53,C2I,incongruent,,,,,,,,,,,,,,,,,
,,,,,,,,,,,,,,,,,,test1,0,2020-01-01_00h00.00.000,stroop_artemis_2025.2.3,2025.2.4,Win32,60.24096386,,,,,,,,,,,,,,,,,,,,,,,,,,,,,,,,,,,,,,,,,,,,,,,,,,,,,,,,,,,,,,,,,,,,,,,,,,,,,,,,,,,,,,,,,,,,,,,,,,,,,,,,,,,,,,,,,,,,,,PINK,saddlebrown,1.084,277.8117,279.0099,"[""k""]",[0.846700000000169],[null],[],[],[],[],[],[],[],0,39,39,39,1,classic,54,I2,incongruent,,,,,,,,,,,,,,,,,
,,,,,,,,,,,,,,,,,,test1,0,2020-01-01_00h00.00.000,stroop_artemis_2025.2.3,2025.2.4,Win32,60.24096386,,,,,,,,,,,,,,,,,,,,,,,,,,,,,,,,,,,,,,,,,,,,,,,,,,,,,,,,,,,,,,,,,,,,,,,,,,,,,,,,,,,,,,,,,,,,,,,,,,,,,,,,,,,,,,,,,,,,,,PINK,hotpink,1.167,279.0107,280.2924,"[""l""]",[0.6320999999996388],[null],[],[],[],[],[],[],[],0,40,40,40,1,classic,55,C4I,congruent,,,,,,,,,,,,,,,,,
,,,,,,,,,,,,,,,,,,test1,0,2020-01-01_00h00.00.000,stroop_artemis_2025.2.3,2025.2.4,Win32,60.24096386,,,,,,,,,,,,,,,,,,,,,,,,,,,,,,,,,,,,,,,,,,,,,,,,,,,,,,,,,,,,,,,,,,,,,,,,,,,,,,,,,,,,,,,,,,,,,,,,,,,,,,,,,,,,,,,,,,,,,,BROWN,saddlebrown,1.184,280.2936,281.5923,"[""k""]",[0.548200000000179],[null],[],[],[],[],[],[],[],0,41,41,41,1,classic,55,C4I,congruent,,,,,,,,,,,,,,,,,
,,,,,,,,,,,,,,,,,,test1,0,2020-01-01_00h00.00.000,stroop_artemis_2025.2.3,2025.2.4,Win32,60.24096386,,,,,,,,,,,,,,,,,,,,,,,,,,,,,,,,,,,,,,,,,,,,,,,,,,,,,,,,,,,,,,,,,,,,,,,,,,,,,,,,,,,,,,,,,,,,,,,,,,,,,,,,,,,,,,,,,,,,,,BLUE,blue,1.034,281.5936,282.7413,"[""j""]",[0.6102999999998246],[null],[],[],[],[],[],[],[],0,42,42,42,1,classic,55,C4I,congruent,,,,,,,,,,,,,,,,,
,,,,,,,,,,,,,,,,,,test1,0,2020-01-01_00h00.00.000,stroop_artemis_2025.2.3,2025.2.4,Win32,60.24096386,,,,,,,,,,,,,,,,,,,,,,,,,,,,,,,,,,,,,,,,,,,,,,,,,,,,,,,,,,,,,,,,,,,,,,,,,,,,,,,,,,,,,,,,,,,,,,,,,,,,,,,,,,,,,,,,,,,,,,PINK,hotpink,1.05,282.7424,283.9076,"[""l""]",[0.5688999999994735],[null],[],[],[],[],[],[],[],0,43,43,43,1,classic,55,C4I,congruent,,,,,,,,,,,,,,,,,
,,,,,,,,,,,,,,,,,,test1,0,2020-01-01_00h00.00.000,stroop_artemis_2025.2.3,2025.2.4,Win32,60.24096386,,,,,,,,,,,,,,,,,,,,,,,,,,,,,,,,,,,,,,,,,,,,,,,,,,,,,,,,,,,,,,,,,,,,,,,,,,,,,,,,,,,,,,,,,,,,,,,,,,,,,,,,,,,,,,,,,,,,,,BLUE,saddlebrown,1,283.9088,285.0238,,,,[],[],[],[],[],[],[],0,44,44,44,1,classic,55,C4I,incongruent,,,,,,,,,,,,,,,,,
,,,,,,,,,,,,,,,,,,test1,0,2020-01-01_00h00.00.000,stroop_artemis_2025.2.3,2025.2.4,Win32,60.24096386,,,,,,,,,,,,,,,,,,,,,,,,,,,,,,,,,,,,,,,,,,,,,,,,,,,,,,,,,,,,,,,,,,,,,,,,,,,,,,,,,,,,,,,,,,,,,,,,,,,,,,,,,,,,,,,,,,,,,,BLUE,blue,1.15,285.0245,286.2898,"[""k"",""j""]","[0.07730000000077553,0.7510000000000332]","[null,null]",[],[],[],[],[],[],[],0,45,45,45,1,classic,56,C2I,congruent,,,,,,,,,,,,,,,,,
,,,,,,,,,,,,,,,,,,test1,0,2020-01-01_00h00.00.000,stroop_artemis_2025.2.3,2025.2.4,Win32,60.24096386,,,,,,,,,,,,,,,,,,,,,,,,,,,,,,,,,,,,,,,,,,,,,,,,,,,,,,,,,,,,,,,,,,,,,,,,,,,,,,,,,,,,,,,,,,,,,,,,,,,,,,,,,,,,,,,,,,,,,,BROWN,saddlebrown,1.1,286.2907,287.5064,"[""k""]",[0.5156000000005747],[null],[],[],[],[],[],[],[],0,46,46,46,1,classic,56,C2I,congruent,,,,,,,,,,,,,,,,,
,,,,,,,,,,,,,,,,,,test1,0,2020-01-01_00h00.00.000,stroop_artemis_2025.2.3,2025.2.4,Win32,60.24096386,,,,,,,,,,,,,,,,,,,,,,,,,,,,,,,,,,,,,,,,,,,,,,,,,,,,,,,,,,,,,,,,,,,,,,,,,,,,,,,,,,,,,,,,,,,,,,,,,,,,,,,,,,,,,,,,,,,,,,PINK,saddlebrown,1.117,287.5077,288.7387,"[""l""]",[0.49529999999981555],[null],[],[],[],[],[],[],[],0,47,47,47,1,classic,56,C2I,incongruent,,,,,,,,,,,,,,,,,
,,,,,,,,,,,,,,,,,,test1,0,2020-01-01_00h00.00.000,stroop_artemis_2025.2.3,2025.2.4,Win32,60.24096386,,,,,,,,,,,,,,,,,,,,,,,,,,,,,,,,,,,,,,,,,,,,,,,,,,,,,,,,,,,,,,,,,,,,,,,,,,,,,,,,,,,,,,,,,,,,,,,,,,,,,,,,,,,,,,,,,,,,,,XXXXX,saddlebrown,1.067,288.7397,289.9217,"[""k""]",[0.5470999999996593],[null],[],[],[],[],[],[],[],0,48,48,48,1,classic,57,NI,neutral,,,,,,,,,,,,,,,,,
,,,,,,,,,,,,,,,,,,test1,0,2020-01-01_00h00.00.000,stroop_artemis_2025.2.3,2025.2.4,Win32,60.24096386,,,,,,,,,,,,,,,,,,,,,,,,,,,,,,,,,,,,,,,,,,,,,,,,,,,,,,,,,,,,,,,,,,,,,,,,,,,,,,,,,,,,,,,,,,,,,,,,,,,,,,,,,,,,,,,,,,,,,,BROWN,hotpink,1.134,289.9229,291.1714,"[""l""]",[0.43220000000019354],[null],[],[],[],[],[],[],[],0,49,49,49,1,classic,57,NI,incongruent,,,,,,,,,,,,,,,,,
,,,,,,,,,,,,,,,,,,test1,0,2020-01-01_00h00.00.000,stroop_artemis_2025.2.3,2025.2.4,Win32,60.24096386,,,,,,,,,,,,,,,,,,,,,,,,,,,,,,,,,,,,,,,,,,,,,,,,,,,,,,,,,,,,,,,,,,,,,,,,,,,,,,,,,,,,,,,,,,,,,,,,,,,,,,,,,,,,,,,,,,,,,,BROWN,saddlebrown,1.2,291.1722,292.4871,"[""k""]",[0.5648999999993976],[null],[],[],[],[],[],[],[],0,50,50,50,1,classic,58,C3I,congruent,,,,,,,,,,,,,,,,,
,,,,,,,,,,,,,,,,,,test1,0,2020-01-01_00h00.00.000,stroop_artemis_2025.2.3,2025.2.4,Win32,60.24096386,,,,,,,,,,,,,,,,,,,,,,,,,,,,,,,,,,,,,,,,,,,,,,,,,,,,,,,,,,,,,,,,,,,,,,,,,,,,,,,,,,,,,,,,,,,,,,,,,,,,,,,,,,,,,,,,,,,,,,BLUE,blue,1,292.4881,293.6032,"[""j""]",[0.5455000000000041],[null],[],[],[],[],[],[],[],0,51,51,51,1,classic,58,C3I,congruent,,,,,,,,,,,,,,,,,
,,,,,,,,,,,,,,,,,,test1,0,2020-01-01_00h00.00.000,stroop_artemis_2025.2.3,2025.2.4,Win32,60.24096386,,,,,,,,,,,,,,,,,,,,,,,,,,,,,,,,,,,,,,,,,,,,,,,,,,,,,,,,,,,,,,,,,,,,,,,,,,,,,,,,,,,,,,,,,,,,,,,,,,,,,,,,,,,,,,,,,,,,,,PINK,hotpink,1.067,293.6044,294.7862,"[""l""]",[0.7102999999998474],[null],[],[],[],[],[],[],[],0,52,52,52,1,classic,58,C3I,congruent,,,,,,,,,,,,,,,,,
,,,,,,,,,,,,,,,,,,test1,0,2020-01-01_00h00.00.000,stroop_artemis_2025.2.3,2025.2.4,Win32,60.24096386,,,,,,,,,,,,,,,,,,,,,,,,,,,,,,,,,,,,,,,,,,,,,,,,,,,,,,,,,,,,,,,,,,,,,,,,,,,,,,,,,,,,,,,,,,,,,,,,,,,,,,,,,,,,,,,,,,,,,,BROWN,blue,1.034,294.7872,295.9358,"[""j""]",[0.5849000000003457],[null],[],[],[],[],[],[],[],0,53,53,53,1,classic,58,C3I,incongruent,,,,,,,,,,,,,,,,,
,,,,,,,,,,,,,,,,,,test1,0,2020-01-01_00h00.00.000,stroop_artemis_2025.2.3,2025.2.4,Win32,60.24096386,,,,,,,,,,,,,,,,,,,,,,,,,,,,,,,,,,,,,,,,,,,,,,,,,,,,,,,,,,,,,,,,,,,,,,,,,,,,,,,,,,,,,,,,,,,,,,,,,,,,,,,,,,,,,,,,,,,,,,PINK,hotpink,1.117,295.9369,297.1684,"[""l""]",[0.4970000000000141],[null],[],[],[],[],[],[],[],0,54,54,54,1,classic,59,C6I,congruent,,,,,,,,,,,,,,,,,
,,,,,,,,,,,,,,,,,,test1,0,2020-01-01_00h00.00.000,stroop_artemis_2025.2.3,2025.2.4,Win32,60.24096386,,,,,,,,,,,,,,,,,,,,,,,,,,,,,,,,,,,,,,,,,,,,,,,,,,,,,,,,,,,,,,,,,,,,,,,,,,,,,,,,,,,,,,,,,,,,,,,,,,,,,,,,,,,,,,,,,,,,,,BROWN,saddlebrown,1.15,297.1696,298.4348,"[""k""]",[0.5324999999999704],[null],[],[],[],[],[],[],[],0,55,55,55,1,classic,59,C6I,congruent,,,,,,,,,,,,,,,,,
,,,,,,,,,,,,,,,,,,test1,0,2020-01-01_00h00.00.000,stroop_artemis_2025.2.3,2025.2.4,Win32,60.24096386,,,,,,,,,,,,,,,,,,,,,,,,,,,,,,,,,,,,,,,,,,,,,,,,,,,,,,,,,,,,,,,,,,,,,,,,,,,,,,,,,,,,,,,,,,,,,,,,,,,,,,,,,,,,,,,,,,,,,,BLUE,blue,1.084,298.436,299.634,"[""j""]",[0.8144000000003757],[null],[],[],[],[],[],[],[],0,56,56,56,1,classic,59,C6I,congruent,,,,,,,,,,,,,,,,,
,,,,,,,,,,,,,,,,,,test1,0,2020-01-01_00h00.00.000,stroop_artemis_2025.2.3,2025.2.4,Win32,60.24096386,,,,,,,,,,,,,,,,,,,,,,,,,,,,,,,,,,,,,,,,,,,,,,,,,,,,,,,,,,,,,,,,,,,,,,,,,,,,,,,,,,,,,,,,,,,,,,,,,,,,,,,,,,,,,,,,,,,,,,BROWN,saddlebrown,1.2,299.6351,300.9502,"[""k""]",[0.4713999999994485],[null],[],[],[],[],[],[],[],0,57,57,57,1,classic,59,C6I,congruent,,,,,,,,,,,,,,,,,
,,,,,,,,,,,,,,,,,,test1,0,2020-01-01_00h00.00.000,stroop_artemis_2025.2.3,2025.2.4,Win32,60.24096386,,,,,,,,,,,,,,,,,,,,,,,,,,,,,,,,,,,,,,,,,,,,,,,,,,,,,,,,,,,,,,,,,,,,,,,,,,,,,,,,,,,,,,,,,,,,,,,,,,,,,,,,,,,,,,,,,,,,,,PINK,hotpink,1.05,300.9517,302.1163,"[""l""]",[0.40170000000023265],[null],[],[],[],[],[],[],[],0,58,58,58,1,classic,59,C6I,congruent,,,,,,,,,,,,,,,,,
,,,,,,,,,,,,,,,,,,test1,0,2020-01-01_00h00.00.000,stroop_artemis_2025.2.3,2025.2.4,Win32,60.24096386,,,,,,,,,,,,,,,,,,,,,,,,,,,,,,,,,,,,,,,,,,,,,,,,,,,,,,,,,,,,,,,,,,,,,,,,,,,,,,,,,,,,,,,,,,,,,,,,,,,,,,,,,,,,,,,,,,,,,,BLUE,blue,1.167,302.1174,303.3992,"[""j""]",[0.5792000000001849],[null],[],[],[],[],[],[],[],0,59,59,59,1,classic,59,C6I,congruent,,,,,,,,,,,,,,,,,
,,,,,,,,,,,,,,,,,,test1,0,2020-01-01_00h00.00.000,stroop_artemis_2025.2.3,2025.2.4,Win32,60.24096386,,,,,,,,,,,,,,,,,,,,,,,,,,,,,,,,,,,,,,,,,,,,,,,,,,,,,,,,,,,,,,,,,,,,,,,,,,,,,,,,,,,,,,,,,,,,,,,,,,,,,,,,,,,,,,,,,,,,,,BLUE,saddlebrown,1.134,303.3999,304.6497,"[""k""]",[0.80600000000004],[null],[],[],[],[],[],[],[],0,60,60,60,1,classic,59,C6I,incongruent,,,,,,,,,,,,,,,,,
,,,,,,,,,,,,,,,,,,test1,0,2020-01-01_00h00.00.000,stroop_artemis_2025.2.3,2025.2.4,Win32,60.24096386,,,,,,,,,,,,,,,,,,,,,,,,,,,,,,,,,,,,,,,,,,,,,,,,,,,,,,,,,,,,,,,,,,,,,,,,,,,,,,,,,,,,,,,,,,,,,,,,,,,,,,,,,,,,,,,,,,,,,,PINK,blue,1.1,304.6513,305.8647,"[""j""]",[0.5964999999999918],[null],[],[],[],[],[],[],[],0,61,61,61,1,classic,60,I4,incongruent,,,,,,,,,,,,,,,,,
,,,,,,,,,,,,,,,,,,test1,0,2020-01-01_00h00.00.000,stroop_artemis_2025.2.3,2025.2.4,Win32,60.24096386,,,,,,,,,,,,,,,,,,,,,,,,,,,,,,,,,,,,,,,,,,,,,,,,,,,,,,,,,,,,,,,,,,,,,,,,,,,,,,,,,,,,,,,,,,,,,,,,,,,,,,,,,,,,,,,,,,,,,,BLUE,hotpink,1.184,305.8658,307.1641,"[""j""]",[0.9601999999992472],[null],[],[],[],[],[],[],[],0,62,62,62,1,classic,60,I4,incongruent,,,,,,,,,,,,,,,,,
,,,,,,,,,,,,,,,,,,test1,0,2020-01-01_00h00.00.000,stroop_artemis_2025.2.3,2025.2.4,Win32,60.24096386,,,,,,,,,,,,,,,,,,,,,,,,,,,,,,,,,,,,,,,,,,,,,,,,,,,,,,,,,,,,,,,,,,,,,,,,,,,,,,,,,,,,,,,,,,,,,,,,,,,,,,,,,,,,,,,,,,,,,,BROWN,hotpink,1.017,307.1653,308.2977,"[""k""]",[0.8067000000001485],[null],[],[],[],[],[],[],[],0,63,63,63,1,classic,60,I4,incongruent,,,,,,,,,,,,,,,,,
,,,,,,,,,,,,,,,,,,test1,0,2020-01-01_00h00.00.000,stroop_artemis_2025.2.3,2025.2.4,Win32,60.24096386,,,,,,,,,,,,,,,,,,,,,,,,,,,,,,,,,,,,,,,,,,,,,,,,,,,,,,,,,,,,,,,,,,,,,,,,,,,,,,,,,,,,,,,,,,,,,,,,,,,,,,,,,,,,,,,,,,,,,,BROWN,saddlebrown,1.067,308.2985,309.4798,"[""k""]",[0.6809000000004062],[null],[],[],[],[],[],[],[],0,64,64,64,1,classic,61,C5I,congruent,,,,,,,,,,,,,,,,,
,,,,,,,,,,,,,,,,,,test1,0,2020-01-01_00h00.00.000,stroop_artemis_2025.2.3,2025.2.4,Win32,60.24096386,,,,,,,,,,,,,,,,,,,,,,,,,,,,,,,,,,,,,,,,,,,,,,,,,,,,,,,,,,,,,,,,,,,,,,,,,,,,,,,,,,,,,,,,,,,,,,,,,,,,,,,,,,,,,,,,,,,,,,PINK,hotpink,1.1,309.4808,310.6959,"[""l""]",[0.41119999999926904],[null],[],[],[],[],[],[],[],0,65,65,65,1,classic,61,C5I,congruent,,,,,,,,,,,,,,,,,
,,,,,,,,,,,,,,,,,,test1,0,2020-01-01_00h00.00.000,stroop_artemis_2025.2.3,2025.2.4,Win32,60.24096386,,,,,,,,,,,,,,,,,,,,,,,,,,,,,,,,,,,,,,,,,,,,,,,,,,,,,,,,,,,,,,,,,,,,,,,,,,,,,,,,,,,,,,,,,,,,,,,,,,,,,,,,,,,,,,,,,,,,,,BLUE,blue,1.084,310.697,311.8964,"[""j""]",[0.6468999999993912],[null],[],[],[],[],[],[],[],0,66,66,66,1,classic,61,C5I,congruent,,,,,,,,,,,,,,,,,
,,,,,,,,,,,,,,,,,,test1,0,2020-01-01_00h00.00.000,stroop_artemis_2025.2.3,2025.2.4,Win32,60.24096386,,,,,,,,,,,,,,,,,,,,,,,,,,,,,,,,,,,,,,,,,,,,,,,,,,,,,,,,,,,,,,,,,,,,,,,,,,,,,,,,,,,,,,,,,,,,,,,,,,,,,,,,,,,,,,,,,,,,,,PINK,hotpink,1.167,311.8975,313.1788,"[""l""]",[0.5439999999999827],[null],[],[],[],[],[],[],[],0,67,67,67,1,classic,61,C5I,congruent,,,,,,,,,,,,,,,,,
,,,,,,,,,,,,,,,,,,test1,0,2020-01-01_00h00.00.000,stroop_artemis_2025.2.3,2025.2.4,Win32,60.24096386,,,,,,,,,,,,,,,,,,,,,,,,,,,,,,,,,,,,,,,,,,,,,,,,,,,,,,,,,,,,,,,,,,,,,,,,,,,,,,,,,,,,,,,,,,,,,,,,,,,,,,,,,,,,,,,,,,,,,,BLUE,blue,1.05,313.1801,314.3445,"[""j""]",[0.889299999999821],[null],[],[],[],[],[],[],[],0,68,68,68,1,classic,61,C5I,congruent,,,,,,,,,,,,,,,,,
,,,,,,,,,,,,,,,,,,test1,0,2020-01-01_00h00.00.000,stroop_artemis_2025.2.3,2025.2.4,Win32,60.24096386,,,,,,,,,,,,,,,,,,,,,,,,,,,,,,,,,,,,,,,,,,,,,,,,,,,,,,,,,,,,,,,,,,,,,,,,,,,,,,,,,,,,,,,,,,,,,,,,,,,,,,,,,,,,,,,,,,,,,,BLUE,hotpink,1.034,314.3451,315.4946,"[""l""]",[0.5664000000003853],[null],[],[],[],[],[],[],[],0,69,69,69,1,classic,61,C5I,incongruent,,,,,,,,,,,,,,,,,
,,,,,,,,,,,,,,,,,,test1,0,2020-01-01_00h00.00.000,stroop_artemis_2025.2.3,2025.2.4,Win32,60.24096386,,,,,,,,,,,,,,,,,,,,,,,,,,,,,,,,,,,,,,,,,,,,,,,,,,,,,,,,,,,,,,,,,,,,,,,,,,,,,,,,,,,,,,,,,,,,,,,,,,,,,,,,,,,,,,,,,,,,,,XXXXX,saddlebrown,1.15,315.4956,316.76,"[""k""]",[0.624400000000378],[null],[],[],[],[],[],[],[],0,70,70,70,1,classic,62,N3I,neutral,,,,,,,,,,,,,,,,,
,,,,,,,,,,,,,,,,,,test1,0,2020-01-01_00h00.00.000,stroop_artemis_2025.2.3,2025.2.4,Win32,60.24096386,,,,,,,,,,,,,,,,,,,,,,,,,,,,,,,,,,,,,,,,,,,,,,,,,,,,,,,,,,,,,,,,,,,,,,,,,,,,,,,,,,,,,,,,,,,,,,,,,,,,,,,,,,,,,,,,,,,,,,XXXX,hotpink,1.134,316.7609,318.0095,"[""l""]",[0.750299999999811],[null],[],[],[],[],[],[],[],0,71,71,71,1,classic,62,N3I,neutral,,,,,,,,,,,,,,,,,
,,,,,,,,,,,,,,,,,,test1,0,2020-01-01_00h00.00.000,stroop_artemis_2025.2.3,2025.2.4,Win32,60.24096386,,,,,,,,,,,,,,,,,,,,,,,,,,,,,,,,,,,,,,,,,,,,,,,,,,,,,,,,,,,,,,,,,,,,,,,,,,,,,,,,,,,,,,,,,,,,,,,,,,,,,,,,,,,,,,,,,,,,,,XXX,blue,1,318.0107,319.1263,"[""j""]",[0.9469999999999459],[null],[],[],[],[],[],[],[],0,72,72,72,1,classic,62,N3I,neutral,,,,,,,,,,,,,,,,,
,,,,,,,,,,,,,,,,,,test1,0,2020-01-01_00h00.00.000,stroop_artemis_2025.2.3,2025.2.4,Win32,60.24096386,,,,,,,,,,,,,,,,,,,,,,,,,,,,,,,,,,,,,,,,,,,,,,,,,,,,,,,,,,,,,,,,,,,,,,,,,,,,,,,,,,,,,,,,,,,,,,,,,,,,,,,,,,,,,,,,,,,,,,BLUE,saddlebrown,1.017,319.1275,320.2585,"[""k""]",[0.8872999999998115],[null],[],[],[],[],[],[],[],0,73,73,73,1,classic,62,N3I,incongruent,,,,,,,,,,,,,,,,,
,,,,,,,,,,,,,,,,,,test1,0,2020-01-01_00h00.00.000,stroop_artemis_2025.2.3,2025.2.4,Win32,60.24096386,,,,,,,,,,,,,,,,,,,,,,,,,,,,,,,,,,,,,,,,,,,,,,,,,,,,,,,,,,,,,,,,,,,,,,,,,,,,,,,,,,,,,,,,,,,,,,,,,,,,,,,,,,,,,,,,,,,,,,BROWN,saddlebrown,1.117,320.2597,321.4914,"[""k""]",[0.6475999999996702],[null],[],[],[],[],[],[],[],0,74,74,74,1,classic,63,C7I,congruent,,,,,,,,,,,,,,,,,
,,,,,,,,,,,,,,,,,,test1,0,2020-01-01_00h00.00.000,stroop_artemis_2025.2.3,2025.2.4,Win32,60.24096386,,,,,,,,,,,,,,,,,,,,,,,,,,,,,,,,,,,,,,,,,,,,,,,,,,,,,,,,,,,,,,,,,,,,,,,,,,,,,,,,,,,,,,,,,,,,,,,,,,,,,,,,,,,,,,,,,,,,,,PINK,hotpink,1.184,321.4926,322.7909,"[""l""]",[0.5890999999996325],[null],[],[],[],[],[],[],[],0,75,75,75,1,classic,63,C7I,congruent,,,,,,,,,,,,,,,,,
,,,,,,,,,,,,,,,,,,test1,0,2020-01-01_00h00.00.000,stroop_artemis_2025.2.3,2025.2.4,Win32,60.24096386,,,,,,,,,,,,,,,,,,,,,,,,,,,,,,,,,,,,,,,,,,,,,,,,,,,,,,,,,,,,,,,,,,,,,,,,,,,,,,,,,,,,,,,,,,,,,,,,,,,,,,,,,,,,,,,,,,,,,,BLUE,blue,1.2,322.7921,324.1068,,,,[],[],[],[],[],[],[],0,76,76,76,1,classic,63,C7I,congruent,,,,,,,,,,,,,,,,,
,,,,,,,,,,,,,,,,,,test1,0,2020-01-01_00h00.00.000,stroop_artemis_2025.2.3,2025.2.4,Win32,60.24096386,,,,,,,,,,,,,,,,,,,,,,,,,,,,,,,,,,,,,,,,,,,,,,,,,,,,,,,,,,,,,,,,,,,,,,,,,,,,,,,,,,,,,,,,,,,,,,,,,,,,,,,,,,,,,,,,,,,,,,BROWN,saddlebrown,1.117,324.108,325.3401,"[""j"",""k""]","[0.06349999999997635,0.5964999999999918]","[null,null]",[],[],[],[],[],[],[],0,77,77,77,1,classic,63,C7I,congruent,,,,,,,,,,,,,,,,,
,,,,,,,,,,,,,,,,,,test1,0,2020-01-01_00h00.00.000,stroop_artemis_2025.2.3,2025.2.4,Win32,60.24096386,,,,,,,,,,,,,,,,,,,,,,,,,,,,,,,,,,,,,,,,,,,,,,,,,,,,,,,,,,,,,,,,,,,,,,,,,,,,,,,,,,,,,,,,,,,,,,,,,,,,,,,,,,,,,,,,,,,,,,PINK,hotpink,1.134,325.3412,326.5891,"[""l""]",[0.7666999999992186],[null],[],[],[],[],[],[],[],0,78,78,78,1,classic,63,C7I,congruent,,,,,,,,,,,,,,,,,
,,,,,,,,,,,,,,,,,,test1,0,2020-01-01_00h00.00.000,stroop_artemis_2025.2.3,2025.2.4,Win32,60.24096386,,,,,,,,,,,,,,,,,,,,,,,,,,,,,,,,,,,,,,,,,,,,,,,,,,,,,,,,,,,,,,,,,,,,,,,,,,,,,,,,,,,,,,,,,,,,,,,,,,,,,,,,,,,,,,,,,,,,,,BROWN,saddlebrown,1.184,326.5905,327.8888,"[""k""]",[1.0612000000002126],[null],[],[],[],[],[],[],[],0,79,79,79,1,classic,63,C7I,congruent,,,,,,,,,,,,,,,,,
,,,,,,,,,,,,,,,,,,test1,0,2020-01-01_00h00.00.000,stroop_artemis_2025.2.3,2025.2.4,Win32,60.24096386,,,,,,,,,,,,,,,,,,,,,,,,,,,,,,,,,,,,,,,,,,,,,,,,,,,,,,,,,,,,,,,,,,,,,,,,,,,,,,,,,,,,,,,,,,,,,,,,,,,,,,,,,,,,,,,,,,,,,,BLUE,blue,1.067,327.89,329.0714,"[""j""]",[0.6428999999994858],[null],[],[],[],[],[],[],[],0,80,80,80,1,classic,63,C7I,congruent,,,,,,,,,,,,,,,,,
,,,,,,,,,,,,,,,,,,test1,0,2020-01-01_00h00.00.000,stroop_artemis_2025.2.3,2025.2.4,Win32,60.24096386,,,,,,,,,,,,,,,,,,,,,,,,,,,,,,,,,,,,,,,,,,,,,,,,,,,,,,,,,,,,,,,,,,,,,,,,,,,,,,,,,,,,,,,,,,,,,,,,,,,,,,,,,,,,,,,,,,,,,,PINK,saddlebrown,1.084,329.0726,330.2708,"[""l""]",[0.6652000000001976],[null],[],[],[],[],[],[],[],0,81,81,81,1,classic,63,C7I,incongruent,,,,,,,,,,,,,,,,,
,,,,,,,,,,,,,,,,,,test1,0,2020-01-01_00h00.00.000,stroop_artemis_2025.2.3,2025.2.4,Win32,60.24096386,,,,,,,,,,,,,,,,,,,,,,,,,,,,,,,,,,,,,,,,,,,,,,,,,,,,,,,,,,,,,,,,,,,,,,,,,,,,,,,,,,,,,,,,,,,,,,,,,,,,,,,,,,,,,,,,,,,,,,BLUE,blue,1.2,330.2718,331.587,"[""j""]",[0.6548999999994294],[null],[],[],[],[],[],[],[],0,82,82,82,1,classic,64,CI,congruent,,,,,,,,,,,,,,,,,
,,,,,,,,,,,,,,,,,,test1,0,2020-01-01_00h00.00.000,stroop_artemis_2025.2.3,2025.2.4,Win32,60.24096386,,,,,,,,,,,,,,,,,,,,,,,,,,,,,,,,,,,,,,,,,,,,,,,,,,,,,,,,,,,,,,,,,,,,,,,,,,,,,,,,,,,,,,,,,,,,,,,,,,,,,,,,,,,,,,,,,,,,,,PINK,blue,1.034,331.5879,332.7365,"[""k""]",[0.8134999999999764],[null],[],[],[],[],[],[],[],0,83,83,83,1,classic,64,CI,incongruent,,,,,,,,,,,,,,,,,
,,,,,,,,,,,,,,,,,,test1,0,2020-01-01_00h00.00.000,stroop_artemis_2025.2.3,2025.2.4,Win32,60.24096386,,,,,,,,,,,,,,,,,,,,,,,,,,,,,,,,,,,,,,,,,,,,,,,,,,,,,,,,,,,,,,,,,,,,,,,,,,,,,,,,,,,,,,,,,,,,,,,,,,,,,,,,,,,,,,,,,,,,,,BROWN,blue,1,332.7377,333.8526,"[""j""]",[0.8787000000001512],[null],[],[],[],[],[],[],[],0,84,84,84,1,classic,65,I2,incongruent,,,,,,,,,,,,,,,,,
,,,,,,,,,,,,,,,,,,test1,0,2020-01-01_00h00.00.000,stroop_artemis_2025.2.3,2025.2.4,Win32,60.24096386,,,,,,,,,,,,,,,,,,,,,,,,,,,,,,,,,,,,,,,,,,,,,,,,,,,,,,,,,,,,,,,,,,,,,,,,,,,,,,,,,,,,,,,,,,,,,,,,,,,,,,,,,,,,,,,,,,,,,,BROWN,saddlebrown,1.1,333.8535,335.0687,"[""k""]",[0.6694000000003939],[null],[],[],[],[],[],[],[],0,85,85,85,1,classic,66,C3I,congruent,,,,,,,,,,,,,,,,,
,,,,,,,,,,,,,,,,,,test1,0,2020-01-01_00h00.00.000,stroop_artemis_2025.2.3,2025.2.4,Win32,60.24096386,,,,,,,,,,,,,,,,,,,,,,,,,,,,,,,,,,,,,,,,,,,,,,,,,,,,,,,,,,,,,,,,,,,,,,,,,,,,,,,,,,,,,,,,,,,,,,,,,,,,,,,,,,,,,,,,,,,,,,PINK,hotpink,1.017,335.07,336.2017,"[""l""]",[0.555499999999995],[null],[],[],[],[],[],[],[],0,86,86,86,1,classic,66,C3I,congruent,,,,,,,,,,,,,,,,,
,,,,,,,,,,,,,,,,,,test1,0,2020-01-01_00h00.00.000,stroop_artemis_2025.2.3,2025.2.4,Win32,60.24096386,,,,,,,,,,,,,,,,,,,,,,,,,,,,,,,,,,,,,,,,,,,,,,,,,,,,,,,,,,,,,,,,,,,,,,,,,,,,,,,,,,,,,,,,,,,,,,,,,,,,,,,,,,,,,,,,,,,,,,BROWN,saddlebrown,1.15,336.203,337.4677,,,,[],[],[],[],[],[],[],0,87,87,87,1,classic,66,C3I,congruent,,,,,,,,,,,,,,,,,
,,,,,,,,,,,,,,,,,,test1,0,2020-01-01_00h00.00.000,stroop_artemis_2025.2.3,2025.2.4,Win32,60.24096386,,,,,,,,,,,,,,,,,,,,,,,,,,,,,,,,,,,,,,,,,,,,,,,,,,,,,,,,,,,,,,,,,,,,,,,,,,,,,,,,,,,,,,,,,,,,,,,,,,,,,,,,,,,,,,,,,,,,,,PINK,saddlebrown,1.167,337.4688,338.7504,"[""k"",""k""]","[0.15329999999977417,0.9235999999996238]","[null,null]",[],[],[],[],[],[],[],0,88,88,88,1,classic,66,C3I,incongruent,,,,,,,,,,,,,,,,,
,,,,,,,,,,,,,,,,,,test1,0,2020-01-01_00h00.00.000,stroop_artemis_2025.2.3,2025.2.4,Win32,60.24096386,,,,,,,,,,,,,,,,,,,,,,,,,,,,,,,,,,,,,,,,,,,,,,,,,,,,,,,,,,,,,,,,,,,,,,,,,,,,,,,,,,,,,,,,,,,,,,,,,,,,,,,,,,,,,,,,,,,,,,PINK,hotpink,1.05,338.7511,339.9167,"[""l""]",[0.4552000000002181],[null],[],[],[],[],[],[],[],0,89,89,89,1,classic,67,C7I,congruent,,,,,,,,,,,,,,,,,
,,,,,,,,,,,,,,,,,,test1,0,2020-01-01_00h00.00.000,stroop_artemis_2025.2.3,2025.2.4,Win32,60.24096386,,,,,,,,,,,,,,,,,,,,,,,,,,,,,,,,,,,,,,,,,,,,,,,,,,,,,,,,,,,,,,,,,,,,,,,,,,,,,,,,,,,,,,,,,,,,,,,,,,,,,,,,,,,,,,,,,,,,,,BLUE,blue,1.15,339.918,341.183,"[""j""]",[0.6192000000002054],[null],[],[],[],[],[],[],[],0,90,90,90,1,classic,67,C7I,congruent,,,,,,,,,,,,,,,,,
,,,,,,,,,,,,,,,,,,test1,0,2020-01-01_00h00.00.000,stroop_artemis_2025.2.3,2025.2.4,Win32,60.24096386,,,,,,,,,,,,,,,,,,,,,,,,,,,,,,,,,,,,,,,,,,,,,,,,,,,,,,,,,,,,,,,,,,,,,,,,,,,,,,,,,,,,,,,,,,,,,,,,,,,,,,,,,,,,,,,,,,,,,,PINK,hotpink,1.084,341.1843,342.3822,"[""l""]",[0.5111000000005106],[null],[],[],[],[],[],[],[],0,91,91,91,1,classic,67,C7I,congruent,,,,,,,,,,,,,,,,,
,,,,,,,,,,,,,,,,,,test1,0,2020-01-01_00h00.00.000,stroop_artemis_2025.2.3,2025.2.4,Win32,60.24096386,,,,,,,,,,,,,,,,,,,,,,,,,,,,,,,,,,,,,,,,,,,,,,,,,,,,,,,,,,,,,,,,,,,,,,,,,,,,,,,,,,,,,,,,,,,,,,,,,,,,,,,,,,,,,,,,,,,,,,BROWN,saddlebrown,1.017,342.3837,343.5152,"[""k""]",[0.5306000000005611],[null],[],[],[],[],[],[],[],0,92,92,92,1,classic,67,C7I,congruent,,,,,,,,,,,,,,,,,
,,,,,,,,,,,,,,,,,,test1,0,2020-01-01_00h00.00.000,stroop_artemis_2025.2.3,2025.2.4,Win32,60.24096386,,,,,,,,,,,,,,,,,,,,,,,,,,,,,,,,,,,,,,,,,,,,,,,,,,,,,,,,,,,,,,,,,,,,,,,,,,,,,,,,,,,,,,,,,,,,,,,,,,,,,,,,,,,,,,,,,,,,,,BLUE,blue,1.167,343.5165,344.7979,"[""j""]",[0.4904000000004203],[null],[],[],[],[],[],[],[],0,93,93,93,1,classic,67,C7I,congruent,,,,,,,,,,,,,,,,,
,,,,,,,,,,,,,,,,,,test1,0,2020-01-01_00h00.00.000,stroop_artemis_2025.2.3,2025.2.4,Win32,60.24096386,,,,,,,,,,,,,,,,,,,,,,,,,,,,,,,,,,,,,,,,,,,,,,,,,,,,,,,,,,,,,,,,,,,,,,,,,,,,,,,,,,,,,,,,,,,,,,,,,,,,,,,,,,,,,,,,,,,,,,PINK,hotpink,1.05,344.7991,345.964,"[""l""]",[0.582100000000537],[null],[],[],[],[],[],[],[],0,94,94,94,1,classic,67,C7I,congruent,,,,,,,,,,,,,,,,,
,,,,,,,,,,,,,,,,,,test1,0,2020-01-01_00h00.00.000,stroop_artemis_2025.2.3,2025.2.4,Win32,60.24096386,,,,,,,,,,,,,,,,,,,,,,,,,,,,,,,,,,,,,,,,,,,,,,,,,,,,,,,,,,,,,,,,,,,,,,,,,,,,,,,,,,,,,,,,,,,,,,,,,,,,,,,,,,,,,,,,,,,,,,BROWN,saddlebrown,1,345.9651,347.0802,"[""k""]",[0.597899999999413],[null],[],[],[],[],[],[],[],0,95,95,95,1,classic,67,C7I,congruent,,,,,,,,,,,,,,,,,
,,,,,,,,,,,,,,,,,,test1,0,2020-01-01_00h00.00.000,stroop_artemis_2025.2.3,2025.2.4,Win32,60.24096386,,,,,,,,,,,,,,,,,,,,,,,,,,,,,,,,,,,,,,,,,,,,,,,,,,,,,,,,,,,,,,,,,,,,,,,,,,,,,,,,,,,,,,,,,,,,,,,,,,,,,,,,,,,,,,,,,,,,,,PINK,blue,1.1,347.0814,348.2965,"[""j""]",[0.986500000000035],[null],[],[],[],[],[],[],[],0,96,96,96,1,classic,67,C7I,incongruent,,,,,,,,,,,,,,,,,
,,,,,,,,,,,,,,,,,,test1,0,2020-01-01_00h00.00.000,stroop_artemis_2025.2.3,2025.2.4,Win32,60.24096386,,,,,,,,,,,,,,,,,,,,,,,,,,,,,,,,,,,,,,,,,,,,,,,,,,,,,,,,,,,,,,,,,,,,,,,,,,,,,,,,,,,,,,,,,,,,,,,,,,,,,,,,,,,,,,,,,,,,,,XXXXX,saddlebrown,1.184,348.2975,349.5959,"[""k""]",[0.8237000000002013],[null],[],[],[],[],[],[],[],0,97,97,97,1,classic,68,NI,neutral,,,,,,,,,,,,,,,,,
,,,,,,,,,,,,,,,,,,test1,0,2020-01-01_00h00.00.000,stroop_artemis_2025.2.3,2025.2.4,Win32,60.24096386,,,,,,,,,,,,,,,,,,,,,,,,,,,,,,,,,,,,,,,,,,,,,,,,,,,,,,,,,,,,,,,,,,,,,,,,,,,,,,,,,,,,,,,,,,,,,,,,,,,,,,,,,,,,,,,,,,,,,,BLUE,saddlebrown,1.067,349.5968,350.7789,"[""j""]",[0.8314999999999486],[null],[],[],[],[],[],[],[],0,98,98,98,1,classic,68,NI,incongruent,,,,,,,,,,,,,,,,,
,,,,,,,,,,,,,,,,,,test1,0,2020-01-01_00h00.00.000,stroop_artemis_2025.2.3,2025.2.4,Win32,60.24096386,,,,,,,,,,,,,,,,,,,,,,,,,,,,,,,,,,,,,,,,,,,,,,,,,,,,,,,,,,,,,,,,,,,,,,,,,,,,,,,,,,,,,,,,,,,,,,,,,,,,,,,,,,,,,,,,,,,,,,BLUE,blue,1.2,350.7796,352.0947,"[""j""]",[0.6162000000002195],[null],[],[],[],[],[],[],[],0,99,99,99,1,classic,69,C6I,congruent,,,,,,,,,,,,,,,,,
,,,,,,,,,,,,,,,,,,test1,0,2020-01-01_00h00.00.000,stroop_artemis_2025.2.3,2025.2.4,Win32,60.24096386,,,,,,,,,,,,,,,,,,,,,,,,,,,,,,,,,,,,,,,,,,,,,,,,,,,,,,,,,,,,,,,,,,,,,,,,,,,,,,,,,,,,,,,,,,,,,,,,,,,,,,,,,,,,,,,,,,,,,,BROWN,saddlebrown,1.134,352.096,353.3443,"[""k""]",[0.5642999999998324],[null],[],[],[],[],[],[],[],0,100,100,100,1,classic,69,C6I,congruent,,,,,,,,,,,,,,,,,
,,,,,,,,,,,,,,,,,,test1,0,2020-01-01_00h00.00.000,stroop_artemis_2025.2.3,2025.2.4,Win32,60.24096386,,,,,,,,,,,,,,,,,,,,,,,,,,,,,,,,,,,,,,,,,,,,,,,,,,,,,,,,,,,,,,,,,,,,,,,,,,,,,,,,,,,,,,,,,,,,,,,,,,,,,,,,,,,,,,,,,,,,,,BLUE,blue,1.117,353.3455,354.5771,"[""j""]",[0.7065999999995825],[null],[],[],[],[],[],[],[],0,101,101,101,1,classic,69,C6I,congruent,,,,,,,,,,,,,,,,,
,,,,,,,,,,,,,,,,,,test1,0,2020-01-01_00h00.00.000,stroop_artemis_2025.2.3,2025.2.4,Win32,60.24096386,,,,,,,,,,,,,,,,,,,,,,,,,,,,,,,,,,,,,,,,,,,,,,,,,,,,,,,,,,,,,,,,,,,,,,,,,,,,,,,,,,,,,,,,,,,,,,,,,,,,,,,,,,,,,,,,,,,,,,PINK,hotpink,1.034,354.5782,355.7266,"[""l""]",[0.5780999999996084],[null],[],[],[],[],[],[],[],0,102,102,102,1,classic,69,C6I,congruent,,,,,,,,,,,,,,,,,
,,,,,,,,,,,,,,,,,,test1,0,2020-01-01_00h00.00.000,stroop_artemis_2025.2.3,2025.2.4,Win32,60.24096386,,,,,,,,,,,,,,,,,,,,,,,,,,,,,,,,,,,,,,,,,,,,,,,,,,,,,,,,,,,,,,,,,,,,,,,,,,,,,,,,,,,,,,,,,,,,,,,,,,,,,,,,,,,,,,,,,,,,,,BROWN,saddlebrown,1.2,355.728,357.0427,"[""k""]",[0.5275000000000318],[null],[],[],[],[],[],[],[],0,103,103,103,1,classic,69,C6I,congruent,,,,,,,,,,,,,,,,,
,,,,,,,,,,,,,,,,,,test1,0,2020-01-01_00h00.00.000,stroop_artemis_2025.2.3,2025.2.4,Win32,60.24096386,,,,,,,,,,,,,,,,,,,,,,,,,,,,,,,,,,,,,,,,,,,,,,,,,,,,,,,,,,,,,,,,,,,,,,,,,,,,,,,,,,,,,,,,,,,,,,,,,,,,,,,,,,,,,,,,,,,,,,BLUE,blue,1.067,357.0439,358.2256,"[""j""]",[0.5982999999997674],[null],[],[],[],[],[],[],[],0,104,104,104,1,classic,69,C6I,congruent,,,,,,,,,,,,,,,,,
,,,,,,,,,,,,,,,,,,test1,0,2020-01-01_00h00.00.000,stroop_artemis_2025.2.3,2025.2.4,Win32,60.24096386,,,,,,,,,,,,,,,,,,,,,,,,,,,,,,,,,,,,,,,,,,,,,,,,,,,,,,,,,,,,,,,,,,,,,,,,,,,,,,,,,,,,,,,,,,,,,,,,,,,,,,,,,,,,,,,,,,,,,,BLUE,hotpink,1.034,358.2261,359.3751,"[""l""]",[0.7654000000003407],[null],[],[],[],[],[],[],[],0,105,105,105,1,classic,69,C6I,incongruent,,,,,,,,,,,,,,,,,
,,,,,,,,,,,,,,,,,,test1,0,2020-01-01_00h00.00.000,stroop_artemis_2025.2.3,2025.2.4,Win32,60.24096386,,,,,,,,,,,,,,,,,,,,,,,,,,,,,,,,,,,,,,,,,,,,,,,,,,,,,,,,,,,,,,,,,,,,,,,,,,,,,,,,,,,,,,,,,,,,,,,,,,,,,,,,,,,,,,,,,,,,,,PINK,hotpink,1.167,359.3764,360.6579,"[""l""]",[0.5767000000001872],[null],[],[],[],[],[],[],[],0,106,106,106,1,classic,70,C5I,congruent,,,,,,,,,,,,,,,,,
