device_detector.started,device_detector.stopped,device_primaryInput,device_screenWidth,device_screenHeight,device_hasTouch,device_hasKeyboard,device_hasMouse,device_userAgent,init_key_input.keys,init_touch_input.x,init_touch_input.y,init_touch_input.leftButton,init_touch_input.midButton,init_touch_input.rightButton,init_touch_input.time,participant,session,date,expName,psychopyVersion,OS,frameRate,inst_select.started,inst_select.stopped,vid_inst_reps,txt_inst_reps,select_video.numClicks,select_video.timesOn,select_video.timesOff,select_text.numClicks,select_text.timesOn,select_text.timesOff,inst1.started,inst1.stopped,inst1_key_resp.keys,inst1_mouse.x,inst1_mouse.y,inst1_mouse.leftButton,inst1_mouse.midButton,inst1_mouse.rightButton,inst1_mouse.time,txt.thisRepN,txt.thisTrialN,txt.thisN,txt.thisIndex,txt.ran,inst2.started,inst2.stopped,inst2_key_resp.keys,inst2_mouse.x,inst2_mouse.y,inst2_mouse.leftButton,inst2_mouse.midButton,inst2_mouse.rightButton,inst2_mouse.time,practice.started,practice.stopped,prac_key_resp.keys,prac_key_resp.corr,prac_mouse.x,prac_mouse.y,prac_mouse.leftButton,prac_mouse.midButton,prac_mouse.rightButton,prac_mouse.time,prac_mouse.corr,prac_mouse.clicked_name,feedback.started,feedback.stopped,feedback_key.keys,feedback_mouse.x,feedback_mouse.y,feedback_mouse.leftButton,feedback_mouse.midButton,feedback_mouse.rightButton,feedback_mouse.time,prac.thisRepN,prac.thisTrialN,prac.thisN,prac.thisIndex,prac.ran,pword,pcolor,pcolor_fmt,pkey_correct,ptouch_correct,pcondition,inst2_2.started,inst2_2.stopped,inst2_key_resp_2.keys,inst2_mouse_2.x,inst2_mouse_2.y,inst2_mouse_2.leftButton,inst2_mouse_2.midButton,inst2_mouse_2.rightButton,inst2_mouse_2.time,fixation.started,fixation.stopped,practice_2.started,practice_2.stopped,prac_key_resp_2.keys,prac_key_resp_2.corr,prac_mouse_2.x,prac_mouse_2.y,prac_mouse_2.leftButton,prac_mouse_2.midButton,prac_mouse_2.rightButton,prac_mouse_2.time,prac_mouse_2.corr,prac_mouse_2.clicked_name,prac_2.thisRepN,prac_2.thisTrialN,prac_2.thisN,prac_2.thisIndex,prac_2.ran,pduration,inst3.started,inst3.stopped,inst3_key_resp.keys,inst3_mouse.x,inst3_mouse.y,inst3_mouse.leftButton,inst3_mouse.midButton,inst3_mouse.rightButton,inst3_mouse.time,get_ready.started,get_ready.stopped,thisWord,thisColor,thisDuration,trial.started,trial.stopped,trial_key_resp.keys,trial_mouse.x,trial_mouse.y,trial_mouse.leftButton,trial_mouse.midButton,trial_mouse.rightButton,trial_mouse.time,trial_mouse.clicked_name,trials.thisRepN,trials.thisTrialN,trials.thisN,trials.thisIndex,trials.ran,test,subblock,subblock_type,condition,change_color,emot_color_switch,rest.started,rest.stopped,ready.started,ready.stopped,blocks.thisRepN,blocks.thisTrialN,blocks.thisN,blocks.thisIndex,blocks.ran,block_type,conditions_filepath,block_rows_s,block_rows,end.started,end.stopped
0.0002,1.3015,touch,384,690,TRUE,FALSE,FALSE,"Mozilla/5.0 (Linux; Android 10; K) AppleWebKit/537.36 (KHTML, like Gecko) Chrome/147.0.0.0 Mobile Safari/537.36",,[0.1418457825978597],[-0.09817441304524739],[1],[0],[0],[1.299299999952316],test3,2,2020-01-01_00h00.00.000,stroop_artemis_2025.2.3,2025.2.4,Linux armv81,59.88023952,,,,,,,,,,,,,,,,,,,,,,,,,,,,,,,,,,,,,,,,,,,,,,,,,,,,,,,,,,,,,,,,,,,,,,,,,,,,,,,,,,,,,,,,,,,,,,,,,,,,,,,,,,,,,,,,,,,,,,,,,,,,,,,,,,,,,,,,,,,,,,,,
,,,,,,,,,,,,,,,,test3,2,2020-01-01_00h00.00.000,stroop_artemis_2025.2.3,2025.2.4,Linux armv81,59.88023952,1.3024,2.9245,0,1,0,[],[],1,[2.984800000011921],[2.984800000011921],,,,,,,,,,,,,,,,,,,,,,,,,,,,,,,,,,,,,,,,,,,,,,,,,,,,,,,,,,,,,,,,,,,,,,,,,,,,,,,,,,,,,,,,,,,,,,,,,,,,,,,,,,,,,,,,,,,,,,,,,,,,,,,,,,,,,,
,,,,,,,,,,,,,,,,test3,2,2020-01-01_00h00.00.000,stroop_artemis_2025.2.3,2025.2.4,Linux armv81,59.88023952,,,,,,,,,,,2.9274,12.5744,,[0.177001953125],[-0.5187066396077474],[1],[0],[0],[9.645199999988078],0,0,0,0,1,,,,,,,,,,,,,,,,,,,,,,,,,,,,,,,,,,,,,,,,,,,,,,,,,,,,,,,,,,,,,,,,,,,,,,,,,,,,,,,,,,,,,,,,,,,,,,,,,,,,,,,,,,,,,,,,,,,,,,,,
,,,,,,,,,,,,,,,,test3,2,2020-01-01_00h00.00.000,stroop_artemis_2025.2.3,2025.2.4,Linux armv81,59.88023952,,,,,,,,,,,,,,,,,,,,,,,,,12.5748,14.0083,,[0.192626953125],[-0.46422259012858075],[1],[0],[0],[1.431999999999995],,,,,,,,,,,,,,,,,,,,,,,,,,,,,,,,,,,,,,,,,,,,,,,,,,,,,,,,,,,,,,,,,,,,,,,,,,,,,,,,,,,,,,,,,,,,,,,,,,,,,,,,,,,,,,,
,,,,,,,,,,,,,,,,test3,2,2020-01-01_00h00.00.000,stroop_artemis_2025.2.3,2025.2.4,Linux armv81,59.88023952,,,,,,,,,,,,,,,,,,,,,,,,,,,,,,,,,,14.0368,15.2425,,0,[-0.28198238213857013],[-0.23888079325358072],[1],[0],[0],[1.204399999976161],[1],"[""prac_opt1_shape""]",15.243,17.7498,,[0.2578125],[-0.4123833974202474],[1],[0],[0],[2.5051000000238446],0,0,0,0,1,BLUE,blue,blue,j,prac_opt1_shape,CONGRUENT,,,,,,,,,,,,,,,,,,,,,,,,,,,,,,,,,,,,,,,,,,,,,,,,,,,,,,,,,,,,,,,,,,,,,,,,,,,,,,,
,,,,,,,,,,,,,,,,test3,2,2020-01-01_00h00.00.000,stroop_artemis_2025.2.3,2025.2.4,Linux armv81,59.88023952,,,,,,,,,,,,,,,,,,,,,,,,,,,,,,,,,,17.7517,18.6834,,0,[0.013427813847859701],[-0.1981499989827474],[1],[0],[0],[0.9306000000238441],[1],"[""prac_opt2_shape""]",18.6836,19.3412,,[0.1601563294728597],[-0.44994036356608075],[1],[0],[0],[0.6573999999761568],0,1,1,1,1,PINK,saddlebrown,brown,k,prac_opt2_shape,INCONGRUENT,,,,,,,,,,,,,,,,,,,,,,,,,,,,,,,,,,,,,,,,,,,,,,,,,,,,,,,,,,,,,,,,,,,,,,,,,,,,,,,
,,,,,,,,,,,,,,,,test3,2,2020-01-01_00h00.00.000,stroop_artemis_2025.2.3,2025.2.4,Linux armv81,59.88023952,,,,,,,,,,,,,,,,,,,,,,,,,,,,,,,,,,19.3428,19.9754,,0,[0.2788087526957194],[-0.24998919169108072],[1],[0],[0],[0.6313999999761606],[1],"[""prac_opt3_shape""]",19.9756,20.4411,,[0.227294921875],[-0.5663140614827474],[1],[0],[0],[0.46530000001192207],0,2,2,2,1,XXXX,hotpink,pink,l,prac_opt3_shape,NEUTRAL,,,,,,,,,,,,,,,,,,,,,,,,,,,,,,,,,,,,,,,,,,,,,,,,,,,,,,,,,,,,,,,,,,,,,,,,,,,,,,,
,,,,,,,,,,,,,,,,test3,2,2020-01-01_00h00.00.000,stroop_artemis_2025.2.3,2025.2.4,Linux armv81,59.88023952,,,,,,,,,,,,,,,,,,,,,,,,,,,,,,,,,,20.4432,21.2337,,0,[0.0270996888478597],[-0.21454811096191406],[1],[0],[0],[0.7893000000119201],[1],"[""prac_opt2_shape""]",21.234,21.7674,,[0.1589356263478597],[-0.5864149729410807],[1],[0],[0],[0.533199999988085],0,3,3,3,1,darkness,saddlebrown,brown,k,prac_opt2_shape,,,,,,,,,,,,,,,,,,,,,,,,,,,,,,,,,,,,,,,,,,,,,,,,,,,,,,,,,,,,,,,,,,,,,,,,,,,,,,,,
,,,,,,,,,,,,,,,,test3,2,2020-01-01_00h00.00.000,stroop_artemis_2025.2.3,2025.2.4,Linux armv81,59.88023952,,,,,,,,,,,,,,,,,,,,,,,,,,,,,,,,,,21.7688,22.4502,,0,[0.2705079714457194],[-0.25739479064941406],[1],[0],[0],[0.6802999999523109],[1],"[""prac_opt3_shape""]",22.4504,23.0247,,[0.235595703125],[-0.6467177073160807],[1],[0],[0],[0.5740999999642327],0,4,4,4,1,lamp,hotpink,pink,l,prac_opt3_shape,,,,,,,,,,,,,,,,,,,,,,,,,,,,,,,,,,,,,,,,,,,,,,,,,,,,,,,,,,,,,,,,,,,,,,,,,,,,,,,,
,,,,,,,,,,,,,,,,test3,2,2020-01-01_00h00.00.000,stroop_artemis_2025.2.3,2025.2.4,Linux armv81,59.88023952,,,,,,,,,,,,,,,,,,,,,,,,,,,,,,,,,,23.0266,23.741,,0,[-0.28051753838857013],[-0.25422096252441406],[1],[0],[0],[0.7134999999999962],[1],"[""prac_opt1_shape""]",23.7412,24.2664,,[0.203857421875],[-0.6255588531494141],[1],[0],[0],[0.5251999999880752],0,5,5,5,1,clip,blue,blue,j,prac_opt1_shape,,,,,,,,,,,,,,,,,,,,,,,,,,,,,,,,,,,,,,,,,,,,,,,,,,,,,,,,,,,,,,,,,,,,,,,,,,,,,,,,
,,,,,,,,,,,,,,,,test3,2,2020-01-01_00h00.00.000,stroop_artemis_2025.2.3,2025.2.4,Linux armv81,59.88023952,,,,,,,,,,,,,,,,,,,,,,,,,,,,,,,,,,,,,,,,,,,,,,,,,,,,,,,,,,,,,,,,,,24.2672,28.544,,[0.1015625794728597],[-0.38487688700358075],[1],[0],[0],[4.275199999988075],,,,,,,,,,,,,,,,,,,,,,,,,,,,,,,,,,,,,,,,,,,,,,,,,,,,,,,,,,,,,,,,,,,,,,
,,,,,,,,,,,,,,,,test3,2,2020-01-01_00h00.00.000,stroop_artemis_2025.2.3,2025.2.4,Linux armv81,59.88023952,,,,,,,,,,,,,,,,,,,,,,,,,,,,,,,,,,,,,,,,,,,,,,,,,,,,,,,,,,,,,,,,,,,,,,,,,,,28.5441,30.5412,,,,,,,,,,,,,,,,,,,,,,,,,,,,,,,,,,,,,,,,,,,,,,,,,,,,,,,,,,,,,,,,,,,,
,,,,,,,,,,,,,,,,test3,2,2020-01-01_00h00.00.000,stroop_artemis_2025.2.3,2025.2.4,Linux armv81,59.88023952,,,,,,,,,,,,,,,,,,,,,,,,,,,,,,,,,,,,,,,,,,,,,,,,,,,,,,,,,,,,BLUE,hotpink,pink,l,prac_opt3_shape,INCONGRUENT,,,,,,,,,,,,30.5504,32.5421,,0,[0.2717286745707194],[-0.2552789052327474],[1],[0],[0],[0.8572000000476834],[1],"[""prac_opt3_shape""]",0,0,0,0,1,2,,,,,,,,,,,,,,,,,,,,,,,,,,,,,,,,,,,,,,,,,,,,,,,,,,
,,,,,,,,,,,,,,,,test3,2,2020-01-01_00h00.00.000,stroop_artemis_2025.2.3,2025.2.4,Linux armv81,59.88023952,,,,,,,,,,,,,,,,,,,,,,,,,,,,,,,,,,,,,,,,,,,,,,,,,,,,,,,,,,,,XXX,blue,blue,j,prac_opt1_shape,NEUTRAL,,,,,,,,,,,,32.5439,34.2828,,0,[-0.27392574151357013],[-0.2441705067952474],[1],[0],[0],[0.5463999999761597],[1],"[""prac_opt1_shape""]",0,1,1,1,1,1.75,,,,,,,,,,,,,,,,,,,,,,,,,,,,,,,,,,,,,,,,,,,,,,,,,,
,,,,,,,,,,,,,,,,test3,2,2020-01-01_00h00.00.000,stroop_artemis_2025.2.3,2025.2.4,Linux armv81,59.88023952,,,,,,,,,,,,,,,,,,,,,,,,,,,,,,,,,,,,,,,,,,,,,,,,,,,,,,,,,,,,house,hotpink,pink,l,prac_opt3_shape,,,,,,,,,,,,,34.2842,35.7748,,0,[0.220458984375],[-0.24469947814941406],[1],[0],[0],[0.5148999999761585],[1],"[""prac_opt3_shape""]",0,2,2,2,1,1.5,,,,,,,,,,,,,,,,,,,,,,,,,,,,,,,,,,,,,,,,,,,,,,,,,,
,,,,,,,,,,,,,,,,test3,2,2020-01-01_00h00.00.000,stroop_artemis_2025.2.3,2025.2.4,Linux armv81,59.88023952,,,,,,,,,,,,,,,,,,,,,,,,,,,,,,,,,,,,,,,,,,,,,,,,,,,,,,,,,,,,darkness,saddlebrown,brown,k,prac_opt2_shape,,,,,,,,,,,,,35.7765,37.0249,,0,[0.0283203919728597],[-0.2409966786702474],[1],[0],[0],[0.5636999999880814],[1],"[""prac_opt2_shape""]",0,3,3,3,1,1.25,,,,,,,,,,,,,,,,,,,,,,,,,,,,,,,,,,,,,,,,,,,,,,,,,,
,,,,,,,,,,,,,,,,test3,2,2020-01-01_00h00.00.000,stroop_artemis_2025.2.3,2025.2.4,Linux armv81,59.88023952,,,,,,,,,,,,,,,,,,,,,,,,,,,,,,,,,,,,,,,,,,,,,,,,,,,,,,,,,,,,,,,,,,,,,,,,,,,,,,,,,,,,,,,,,,,,,,,37.0256,39.7007,,[0.0712891419728597],[-0.31769752502441406],[1],[0],[0],[2.67289999997616],,,,,,,,,,,,,,,,,,,,,,,,,,,,,,,,,,,,,,,,,
,,,,,,,,,,,,,,,,test3,2,2020-01-01_00h00.00.000,stroop_artemis_2025.2.3,2025.2.4,Linux armv81,59.88023952,,,,,,,,,,,,,,,,,,,,,,,,,,,,,,,,,,,,,,,,,,,,,,,,,,,,,,,,,,,,,,,,,,,,,,,,,,,,,,,,,,,,,,,,,,,,,,,,,,,,,,,,39.7008,40.9,,,,,,,,,,,,,,,,,,,,,,,,,,,,,,,,,,,,,,,
,,,,,,,,,,,,,,,,test3,2,2020-01-01_00h00.00.000,stroop_artemis_2025.2.3,2025.2.4,Linux armv81,59.88023952,,,,,,,,,,,,,,,,,,,,,,,,,,,,,,,,,,,,,,,,,,,,,,,,,,,,,,,,,,,,,,,,,,,,,,,,,,,40.9001,42.8999,,,,,,,,,,,,,,,,,,,,,,,,,,,,,,,,,,,,,,,,,,,,,,,,,,,,,,,,,,,,,,,,,,,,
,,,,,,,,,,,,,,,,test3,2,2020-01-01_00h00.00.000,stroop_artemis_2025.2.3,2025.2.4,Linux armv81,59.88023952,,,,,,,,,,,,,,,,,,,,,,,,,,,,,,,,,,,,,,,,,,,,,,,,,,,,,,,,,,,,,,,,,,,,,,,,,,,,,,,,,,,,,,,,,,,,,,,,,,,,,,,,,,move,saddlebrown,1.084,42.9233,44.1169,,[-0.008544842402140299],[-0.22459856669108072],[1],[0],[0],[0.6413999999761586],"[""trial_opt2_shape""]",0,0,0,0,1,emotional,139,Neutx2_Neg,neutral,1,,,,,,,,,,,,,,,,
,,,,,,,,,,,,,,,,test3,2,2020-01-01_00h00.00.000,stroop_artemis_2025.2.3,2025.2.4,Linux armv81,59.88023952,,,,,,,,,,,,,,,,,,,,,,,,,,,,,,,,,,,,,,,,,,,,,,,,,,,,,,,,,,,,,,,,,,,,,,,,,,,,,,,,,,,,,,,,,,,,,,,,,,,,,,,,,,cactus,saddlebrown,1.067,44.1188,45.2914,,[0.0051270325978597],[-0.28490130106608075],[1],[0],[0],[0.4796999999880782],"[""trial_opt2_shape""]",0,1,1,1,1,emotional,139,Neutx2_Neg,neutral,0,,,,,,,,,,,,,,,,
,,,,,,,,,,,,,,,,test3,2,2020-01-01_00h00.00.000,stroop_artemis_2025.2.3,2025.2.4,Linux armv81,59.88023952,,,,,,,,,,,,,,,,,,,,,,,,,,,,,,,,,,,,,,,,,,,,,,,,,,,,,,,,,,,,,,,,,,,,,,,,,,,,,,,,,,,,,,,,,,,,,,,,,,,,,,,,,,pessimist,hotpink,1.167,45.293,46.5667,,[0.251220703125],[-0.19920794169108072],[1],[0],[0],[0.5643000000119187],"[""trial_opt3_shape""]",0,2,2,2,1,emotional,139,Neutx2_Neg,negative,1,NeutNegSwitch,,,,,,,,,,,,,,,
,,,,,,,,,,,,,,,,test3,2,2020-01-01_00h00.00.000,stroop_artemis_2025.2.3,2025.2.4,Linux armv81,59.88023952,,,,,,,,,,,,,,,,,,,,,,,,,,,,,,,,,,,,,,,,,,,,,,,,,,,,,,,,,,,,,,,,,,,,,,,,,,,,,,,,,,,,,,,,,,,,,,,,,,,,,,,,,,rope,saddlebrown,1.017,46.5686,47.7,,[0.0402832825978597],[-0.2378228505452474],[1],[0],[0],[0.7137999999523146],"[""trial_opt2_shape""]",0,3,3,3,1,emotional,140,Neutx2_Neg,neutral,1,,,,,,,,,,,,,,,,
,,,,,,,,,,,,,,,,test3,2,2020-01-01_00h00.00.000,stroop_artemis_2025.2.3,2025.2.4,Linux armv81,59.88023952,,,,,,,,,,,,,,,,,,,,,,,,,,,,,,,,,,,,,,,,,,,,,,,,,,,,,,,,,,,,,,,,,,,,,,,,,,,,,,,,,,,,,,,,,,,,,,,,,,,,,,,,,,compare,saddlebrown,1.184,47.7017,49,,[0.0307617982228597],[-0.21983782450358072],[1],[0],[0],[0.6302000000476866],"[""trial_opt2_shape""]",0,4,4,4,1,emotional,140,Neutx2_Neg,neutral,0,,,,,,,,,,,,,,,,
,,,,,,,,,,,,,,,,test3,2,2020-01-01_00h00.00.000,stroop_artemis_2025.2.3,2025.2.4,Linux armv81,59.88023952,,,,,,,,,,,,,,,,,,,,,,,,,,,,,,,,,,,,,,,,,,,,,,,,,,,,,,,,,,,,,,,,,,,,,,,,,,,,,,,,,,,,,,,,,,,,,,,,,,,,,,,,,,nervous,hotpink,1.034,49.0022,50.1497,,[0.216552734375],[-0.2346490224202474],[1],[0],[0],[0.4976999999880789],"[""trial_opt3_shape""]",0,5,5,5,1,emotional,140,Neutx2_Neg,negative,1,NeutNegSwitch,,,,,,,,,,,,,,,
,,,,,,,,,,,,,,,,test3,2,2020-01-01_00h00.00.000,stroop_artemis_2025.2.3,2025.2.4,Linux armv81,59.88023952,,,,,,,,,,,,,,,,,,,,,,,,,,,,,,,,,,,,,,,,,,,,,,,,,,,,,,,,,,,,,,,,,,,,,,,,,,,,,,,,,,,,,,,,,,,,,,,,,,,,,,,,,,predict,blue,1.05,50.1517,51.3159,,[-0.33154296875],[-0.2584527333577474],[1],[0],[0],[0.3803000000119212],"[""trial_opt1_shape""]",0,6,6,6,1,emotional,141,Neutx5_Neg,neutral,1,,,,,,,,,,,,,,,,
,,,,,,,,,,,,,,,,test3,2,2020-01-01_00h00.00.000,stroop_artemis_2025.2.3,2025.2.4,Linux armv81,59.88023952,,,,,,,,,,,,,,,,,,,,,,,,,,,,,,,,,,,,,,,,,,,,,,,,,,,,,,,,,,,,,,,,,,,,,,,,,,,,,,,,,,,,,,,,,,,,,,,,,,,,,,,,,,gather,blue,1.15,51.3168,52.5741,,[-0.327880859375],[-0.2219537099202474],[1],[0],[0],[0.482300000011918],"[""trial_opt1_shape""]",0,7,7,7,1,emotional,141,Neutx5_Neg,neutral,0,,,,,,,,,,,,,,,,
,,,,,,,,,,,,,,,,test3,2,2020-01-01_00h00.00.000,stroop_artemis_2025.2.3,2025.2.4,Linux armv81,59.88023952,,,,,,,,,,,,,,,,,,,,,,,,,,,,,,,,,,,,,,,,,,,,,,,,,,,,,,,,,,,,,,,,,,,,,,,,,,,,,,,,,,,,,,,,,,,,,,,,,,,,,,,,,,alone,hotpink,1.117,52.5751,53.808,,[0.2653810183207194],[-0.2013238271077474],[1],[0],[0],[0.6818000000119184],"[""trial_opt3_shape""]",0,8,8,8,1,emotional,141,Neutx5_Neg,negative,1,NeutNegSwitch,,,,,,,,,,,,,,,
,,,,,,,,,,,,,,,,test3,2,2020-01-01_00h00.00.000,stroop_artemis_2025.2.3,2025.2.4,Linux armv81,59.88023952,,,,,,,,,,,,,,,,,,,,,,,,,,,,,,,,,,,,,,,,,,,,,,,,,,,,,,,,,,,,,,,,,,,,,,,,,,,,,,,,,,,,,,,,,,,,,,,,,,,,,,,,,,principal,saddlebrown,1.2,53.8103,55.1249,,[0.0236817200978597],[-0.3044732411702474],[1],[0],[0],[0.5131999999880748],"[""trial_opt2_shape""]",0,9,9,9,1,emotional,142,Neutx3_Neg,neutral,1,,,,,,,,,,,,,,,,
,,,,,,,,,,,,,,,,test3,2,2020-01-01_00h00.00.000,stroop_artemis_2025.2.3,2025.2.4,Linux armv81,59.88023952,,,,,,,,,,,,,,,,,,,,,,,,,,,,,,,,,,,,,,,,,,,,,,,,,,,,,,,,,,,,,,,,,,,,,,,,,,,,,,,,,,,,,,,,,,,,,,,,,,,,,,,,,,warrior,saddlebrown,1,55.1268,56.2413,,[0.0302735169728597],[-0.2743218739827474],[1],[0],[0],[0.7804000000357689],"[""trial_opt2_shape""]",0,10,10,10,1,emotional,142,Neutx3_Neg,neutral,0,,,,,,,,,,,,,,,,
,,,,,,,,,,,,,,,,test3,2,2020-01-01_00h00.00.000,stroop_artemis_2025.2.3,2025.2.4,Linux armv81,59.88023952,,,,,,,,,,,,,,,,,,,,,,,,,,,,,,,,,,,,,,,,,,,,,,,,,,,,,,,,,,,,,,,,,,,,,,,,,,,,,,,,,,,,,,,,,,,,,,,,,,,,,,,,,,shame,saddlebrown,1.134,56.2439,57.4916,,[0.0192871888478597],[-0.2790826161702474],[1],[0],[0],[0.5476000000238486],"[""trial_opt2_shape""]",0,11,11,11,1,emotional,142,Neutx3_Neg,negative,0,NeutNegNoSwitch,,,,,,,,,,,,,,,
,,,,,,,,,,,,,,,,test3,2,2020-01-01_00h00.00.000,stroop_artemis_2025.2.3,2025.2.4,Linux armv81,59.88023952,,,,,,,,,,,,,,,,,,,,,,,,,,,,,,,,,,,,,,,,,,,,,,,,,,,,,,,,,,,,,,,,,,,,,,,,,,,,,,,,,,,,,,,,,,,,,,,,,,,,,,,,,,grate,hotpink,1.1,57.4935,58.7081,,[0.2634278933207194],[-0.20714251200358072],[1],[0],[0],[0.546799999952313],"[""trial_opt3_shape""]",0,12,12,12,1,emotional,143,Neutx3_Neg,neutral,1,,,,,,,,,,,,,,,,
,,,,,,,,,,,,,,,,test3,2,2020-01-01_00h00.00.000,stroop_artemis_2025.2.3,2025.2.4,Linux armv81,59.88023952,,,,,,,,,,,,,,,,,,,,,,,,,,,,,,,,,,,,,,,,,,,,,,,,,,,,,,,,,,,,,,,,,,,,,,,,,,,,,,,,,,,,,,,,,,,,,,,,,,,,,,,,,,unit,hotpink,1.034,58.7099,59.85,,[0.2634278933207194],[-0.2425835927327474],[1],[0],[0],[0.48050000000000637],"[""trial_opt3_shape""]",0,13,13,13,1,emotional,143,Neutx3_Neg,neutral,0,,,,,,,,,,,,,,,,
,,,,,,,,,,,,,,,,test3,2,2020-01-01_00h00.00.000,stroop_artemis_2025.2.3,2025.2.4,Linux armv81,59.88023952,,,,,,,,,,,,,,,,,,,,,,,,,,,,,,,,,,,,,,,,,,,,,,,,,,,,,,,,,,,,,,,,,,,,,,,,,,,,,,,,,,,,,,,,,,,,,,,,,,,,,,,,,,sneer,hotpink,1.017,59.8519,60.9741,,[0.2746583620707194],[-0.2552789052327474],[1],[0],[0],[0.5969000000357596],"[""trial_opt3_shape""]",0,14,14,14,1,emotional,143,Neutx3_Neg,negative,0,NeutNegNoSwitch,,,,,,,,,,,,,,,
,,,,,,,,,,,,,,,,test3,2,2020-01-01_00h00.00.000,stroop_artemis_2025.2.3,2025.2.4,Linux armv81,59.88023952,,,,,,,,,,,,,,,,,,,,,,,,,,,,,,,,,,,,,,,,,,,,,,,,,,,,,,,,,,,,,,,,,,,,,,,,,,,,,,,,,,,,,,,,,,,,,,,,,,,,,,,,,,clay,blue,1.1,60.9749,62.1827,,[-0.3500976363817851],[-0.2044976552327474],[1],[0],[0],[0.4326999999880883],[null],0,15,15,15,1,emotional,144,Neutx4_Pos,neutral,1,,,,,,,,,,,,,,,,
,,,,,,,,,,,,,,,,test3,2,2020-01-01_00h00.00.000,stroop_artemis_2025.2.3,2025.2.4,Linux armv81,59.88023952,,,,,,,,,,,,,,,,,,,,,,,,,,,,,,,,,,,,,,,,,,,,,,,,,,,,,,,,,,,,,,,,,,,,,,,,,,,,,,,,,,,,,,,,,,,,,,,,,,,,,,,,,,vase,blue,1.084,62.1844,63.3835,,[-0.3352050582567851],[-0.22565650939941406],[1],[0],[0],[0.39749999999999375],"[""trial_opt1_shape""]",0,16,16,16,1,emotional,144,Neutx4_Pos,neutral,0,,,,,,,,,,,,,,,,
,,,,,,,,,,,,,,,,test3,2,2020-01-01_00h00.00.000,stroop_artemis_2025.2.3,2025.2.4,Linux armv81,59.88023952,,,,,,,,,,,,,,,,,,,,,,,,,,,,,,,,,,,,,,,,,,,,,,,,,,,,,,,,,,,,,,,,,,,,,,,,,,,,,,,,,,,,,,,,,,,,,,,,,,,,,,,,,,superior,hotpink,1.134,63.3856,64.6331,,[0.25146484375],[-0.16852760314941406],[1],[0],[0],[0.5797999999523142],"[""trial_opt3_shape""]",0,17,17,17,1,emotional,144,Neutx4_Pos,positive,1,NeutPosSwitch,,,,,,,,,,,,,,,
,,,,,,,,,,,,,,,,test3,2,2020-01-01_00h00.00.000,stroop_artemis_2025.2.3,2025.2.4,Linux armv81,59.88023952,,,,,,,,,,,,,,,,,,,,,,,,,,,,,,,,,,,,,,,,,,,,,,,,,,,,,,,,,,,,,,,,,,,,,,,,,,,,,,,,,,,,,,,,,,,,,,,,,,,,,,,,,,service,hotpink,1.184,64.6349,65.9252,,[0.2729493776957194],[-0.20978736877441406],[1],[0],[0],[0.4801000000238389],"[""trial_opt3_shape""]",0,18,18,18,1,emotional,145,Posx4,positive,0,,,,,,,,,,,,,,,,
,,,,,,,,,,,,,,,,test3,2,2020-01-01_00h00.00.000,stroop_artemis_2025.2.3,2025.2.4,Linux armv81,59.88023952,,,,,,,,,,,,,,,,,,,,,,,,,,,,,,,,,,,,,,,,,,,,,,,,,,,,,,,,,,,,,,,,,,,,,,,,,,,,,,,,,,,,,,,,,,,,,,,,,,,,,,,,,,healthy,hotpink,1,65.927,67.0333,,[0.255615234375],[-0.25580787658691406],[1],[0],[0],[0.46309999996424267],"[""trial_opt3_shape""]",0,19,19,19,1,emotional,145,Posx4,positive,0,PosNoSwitch,,,,,,,,,,,,,,,
,,,,,,,,,,,,,,,,test3,2,2020-01-01_00h00.00.000,stroop_artemis_2025.2.3,2025.2.4,Linux armv81,59.88023952,,,,,,,,,,,,,,,,,,,,,,,,,,,,,,,,,,,,,,,,,,,,,,,,,,,,,,,,,,,,,,,,,,,,,,,,,,,,,,,,,,,,,,,,,,,,,,,,,,,,,,,,,,pretend,blue,1.05,67.0352,68.1998,,[-0.3654784957567851],[-0.2711480458577474],[1],[0],[0],[0.41330000001191536],[null],0,20,20,20,1,emotional,146,Neutx3_Neg,neutral,1,,,,,,,,,,,,,,,,
,,,,,,,,,,,,,,,,test3,2,2020-01-01_00h00.00.000,stroop_artemis_2025.2.3,2025.2.4,Linux armv81,59.88023952,,,,,,,,,,,,,,,,,,,,,,,,,,,,,,,,,,,,,,,,,,,,,,,,,,,,,,,,,,,,,,,,,,,,,,,,,,,,,,,,,,,,,,,,,,,,,,,,,,,,,,,,,,commanding,blue,1.2,68.2017,69.5162,,[-0.31396484375],[-0.2029107411702474],[1],[0],[0],[0.4806999999880901],"[""trial_opt1_shape""]",0,21,21,21,1,emotional,146,Neutx3_Neg,neutral,0,,,,,,,,,,,,,,,,
,,,,,,,,,,,,,,,,test3,2,2020-01-01_00h00.00.000,stroop_artemis_2025.2.3,2025.2.4,Linux armv81,59.88023952,,,,,,,,,,,,,,,,,,,,,,,,,,,,,,,,,,,,,,,,,,,,,,,,,,,,,,,,,,,,,,,,,,,,,,,,,,,,,,,,,,,,,,,,,,,,,,,,,,,,,,,,,,lousy,blue,1.117,69.5181,70.7414,,[-0.3212890625],[-0.2108453114827474],[1],[0],[0],[0.4475000000000051],"[""trial_opt1_shape""]",0,22,22,22,1,emotional,146,Neutx3_Neg,negative,0,NeutNegNoSwitch,,,,,,,,,,,,,,,
,,,,,,,,,,,,,,,,test3,2,2020-01-01_00h00.00.000,stroop_artemis_2025.2.3,2025.2.4,Linux armv81,59.88023952,,,,,,,,,,,,,,,,,,,,,,,,,,,,,,,,,,,,,,,,,,,,,,,,,,,,,,,,,,,,,,,,,,,,,,,,,,,,,,,,,,,,,,,,,,,,,,,,,,,,,,,,,,sweep,saddlebrown,1.167,70.7433,72.0248,,[0.0290528138478597],[-0.27537981669108075],[1],[0],[0],[0.5803000000119312],"[""trial_opt2_shape""]",0,23,23,23,1,emotional,147,Neutx1_Neg,neutral,1,,,,,,,,,,,,,,,,
,,,,,,,,,,,,,,,,test3,2,2020-01-01_00h00.00.000,stroop_artemis_2025.2.3,2025.2.4,Linux armv81,59.88023952,,,,,,,,,,,,,,,,,,,,,,,,,,,,,,,,,,,,,,,,,,,,,,,,,,,,,,,,,,,,,,,,,,,,,,,,,,,,,,,,,,,,,,,,,,,,,,,,,,,,,,,,,,awkward,hotpink,1.067,72.027,73.1997,,[0.243408203125],[-0.25633684794108075],[1],[0],[0],[0.4976000000238372],"[""trial_opt3_shape""]",0,24,24,24,1,emotional,147,Neutx1_Neg,negative,1,NeutNegSwitch,,,,,,,,,,,,,,,
,,,,,,,,,,,,,,,,test3,2,2020-01-01_00h00.00.000,stroop_artemis_2025.2.3,2025.2.4,Linux armv81,59.88023952,,,,,,,,,,,,,,,,,,,,,,,,,,,,,,,,,,,,,,,,,,,,,,,,,,,,,,,,,,,,,,,,,,,,,,,,,,,,,,,,,,,,,,,,,,,,,,,,,,,,,,,,,,lovely,blue,1.15,73.2014,74.4667,,[-0.27929683526357013],[-0.22459856669108072],[1],[0],[0],[0.7818000000119127],"[""trial_opt1_shape""]",0,25,25,25,1,emotional,148,Posx2,positive,1,,,,,,,,,,,,,,,,
,,,,,,,,,,,,,,,,test3,2,2020-01-01_00h00.00.000,stroop_artemis_2025.2.3,2025.2.4,Linux armv81,59.88023952,,,,,,,,,,,,,,,,,,,,,,,,,,,,,,,,,,,,,,,,,,,,,,,,,,,,,,,,,,,,,,,,,,,,,,,,,,,,,,,,,,,,,,,,,,,,,,,,,,,,,,,,,,lullaby,saddlebrown,1.2,74.4687,75.7831,,[0.0388184388478597],[-0.27537981669108075],[1],[0],[0],[1.0634999999999906],"[""trial_opt2_shape""]",0,26,26,26,1,emotional,148,Posx2,positive,1,PosSwitch,,,,,,,,,,,,,,,
,,,,,,,,,,,,,,,,test3,2,2020-01-01_00h00.00.000,stroop_artemis_2025.2.3,2025.2.4,Linux armv81,59.88023952,,,,,,,,,,,,,,,,,,,,,,,,,,,,,,,,,,,,,,,,,,,,,,,,,,,,,,,,,,,,,,,,,,,,,,,,,,,,,,,,,,,,,,,,,,,,,,,,,,,,,,,,,,fireplace,blue,1.134,75.7849,77.025,,[-0.27612300713857013],[-0.19762102762858072],[1],[0],[0],[0.6798000000119231],"[""trial_opt1_shape""]",0,27,27,27,1,emotional,149,Neutx2_Pos,neutral,1,,,,,,,,,,,,,,,,
,,,,,,,,,,,,,,,,test3,2,2020-01-01_00h00.00.000,stroop_artemis_2025.2.3,2025.2.4,Linux armv81,59.88023952,,,,,,,,,,,,,,,,,,,,,,,,,,,,,,,,,,,,,,,,,,,,,,,,,,,,,,,,,,,,,,,,,,,,,,,,,,,,,,,,,,,,,,,,,,,,,,,,,,,,,,,,,,flick,blue,1.167,77.0269,78.3,,[-0.26318355401357013],[-0.16112200419108072],[1],[0],[0],[0.546999999999997],"[""trial_opt1_shape""]",0,28,28,28,1,emotional,149,Neutx2_Pos,neutral,0,,,,,,,,,,,,,,,,
,,,,,,,,,,,,,,,,test3,2,2020-01-01_00h00.00.000,stroop_artemis_2025.2.3,2025.2.4,Linux armv81,59.88023952,,,,,,,,,,,,,,,,,,,,,,,,,,,,,,,,,,,,,,,,,,,,,,,,,,,,,,,,,,,,,,,,,,,,,,,,,,,,,,,,,,,,,,,,,,,,,,,,,,,,,,,,,,brave,hotpink,1.067,78.3017,79.4751,,[0.248779296875],[-0.17064348856608072],[1],[0],[0],[0.5969000000357596],"[""trial_opt3_shape""]",0,29,29,29,1,emotional,149,Neutx2_Pos,positive,1,NeutPosSwitch,,,,,,,,,,,,,,,
,,,,,,,,,,,,,,,,test3,2,2020-01-01_00h00.00.000,stroop_artemis_2025.2.3,2025.2.4,Linux armv81,59.88023952,,,,,,,,,,,,,,,,,,,,,,,,,,,,,,,,,,,,,,,,,,,,,,,,,,,,,,,,,,,,,,,,,,,,,,,,,,,,,,,,,,,,,,,,,,,,,,,,,,,,,,,,,,toaster,saddlebrown,1.05,79.4769,80.6414,,[0.0175782044728597],[-0.27961158752441406],[1],[0],[0],[0.680700000047679],"[""trial_opt2_shape""]",0,30,30,30,1,emotional,150,Neutx1_Neg,neutral,1,,,,,,,,,,,,,,,,
,,,,,,,,,,,,,,,,test3,2,2020-01-01_00h00.00.000,stroop_artemis_2025.2.3,2025.2.4,Linux armv81,59.88023952,,,,,,,,,,,,,,,,,,,,,,,,,,,,,,,,,,,,,,,,,,,,,,,,,,,,,,,,,,,,,,,,,,,,,,,,,,,,,,,,,,,,,,,,,,,,,,,,,,,,,,,,,,defective,saddlebrown,1.084,80.6432,81.8408,,[0.0383301575978597],[-0.26691627502441406],[1],[0],[0],[0.6806999999880787],"[""trial_opt2_shape""]",0,31,31,31,1,emotional,150,Neutx1_Neg,negative,0,NeutNegNoSwitch,,,,,,,,,,,,,,,
,,,,,,,,,,,,,,,,test3,2,2020-01-01_00h00.00.000,stroop_artemis_2025.2.3,2025.2.4,Linux armv81,59.88023952,,,,,,,,,,,,,,,,,,,,,,,,,,,,,,,,,,,,,,,,,,,,,,,,,,,,,,,,,,,,,,,,,,,,,,,,,,,,,,,,,,,,,,,,,,,,,,,,,,,,,,,,,,prosper,hotpink,1,81.8415,82.9584,,[0.260986328125],[-0.23888079325358072],[1],[0],[0],[0.749400000035763],"[""trial_opt3_shape""]",0,32,32,32,1,emotional,151,Posx3,positive,1,,,,,,,,,,,,,,,,
,,,,,,,,,,,,,,,,test3,2,2020-01-01_00h00.00.000,stroop_artemis_2025.2.3,2025.2.4,Linux armv81,59.88023952,,,,,,,,,,,,,,,,,,,,,,,,,,,,,,,,,,,,,,,,,,,,,,,,,,,,,,,,,,,,,,,,,,,,,,,,,,,,,,,,,,,,,,,,,,,,,,,,,,,,,,,,,,funny,hotpink,1.1,82.96,84.1744,,[0.249755859375],[-0.23570696512858072],[1],[0],[0],[0.6303999999761487],"[""trial_opt3_shape""]",0,33,33,33,1,emotional,151,Posx3,positive,0,,,,,,,,,,,,,,,,
,,,,,,,,,,,,,,,,test3,2,2020-01-01_00h00.00.000,stroop_artemis_2025.2.3,2025.2.4,Linux armv81,59.88023952,,,,,,,,,,,,,,,,,,,,,,,,,,,,,,,,,,,,,,,,,,,,,,,,,,,,,,,,,,,,,,,,,,,,,,,,,,,,,,,,,,,,,,,,,,,,,,,,,,,,,,,,,,new,hotpink,1.034,84.1756,85.3246,,[0.2631837526957194],[-0.17963600158691406],[1],[0],[0],[0.5321999999880802],"[""trial_opt3_shape""]",0,34,34,34,1,emotional,151,Posx3,positive,0,PosNoSwitch,,,,,,,,,,,,,,,
,,,,,,,,,,,,,,,,test3,2,2020-01-01_00h00.00.000,stroop_artemis_2025.2.3,2025.2.4,Linux armv81,59.88023952,,,,,,,,,,,,,,,,,,,,,,,,,,,,,,,,,,,,,,,,,,,,,,,,,,,,,,,,,,,,,,,,,,,,,,,,,,,,,,,,,,,,,,,,,,,,,,,,,,,,,,,,,,anxiety,blue,1.117,85.3265,86.5583,,[-0.324462890625],[-0.22724342346191406],[1],[0],[0],[0.4139000000357669],"[""trial_opt1_shape""]",0,35,35,35,1,emotional,152,Negx4,negative,1,,,,,,,,,,,,,,,,
,,,,,,,,,,,,,,,,test3,2,2020-01-01_00h00.00.000,stroop_artemis_2025.2.3,2025.2.4,Linux armv81,59.88023952,,,,,,,,,,,,,,,,,,,,,,,,,,,,,,,,,,,,,,,,,,,,,,,,,,,,,,,,,,,,,,,,,,,,,,,,,,,,,,,,,,,,,,,,,,,,,,,,,,,,,,,,,,error,blue,1.017,86.5602,87.6908,,[-0.29028316338857013],[-0.18333880106608072],[1],[0],[0],[0.44640000003576574],"[""trial_opt1_shape""]",0,36,36,36,1,emotional,152,Negx4,negative,0,,,,,,,,,,,,,,,,
,,,,,,,,,,,,,,,,test3,2,2020-01-01_00h00.00.000,stroop_artemis_2025.2.3,2025.2.4,Linux armv81,59.88023952,,,,,,,,,,,,,,,,,,,,,,,,,,,,,,,,,,,,,,,,,,,,,,,,,,,,,,,,,,,,,,,,,,,,,,,,,,,,,,,,,,,,,,,,,,,,,,,,,,,,,,,,,,ridicule,saddlebrown,1.15,87.6914,88.949,,[0.0249024232228597],[-0.2409966786702474],[1],[0],[0],[0.44899999999999807],"[""trial_opt2_shape""]",0,37,37,37,1,emotional,152,Negx4,negative,1,NegSwitch,,,,,,,,,,,,,,,
,,,,,,,,,,,,,,,,test3,2,2020-01-01_00h00.00.000,stroop_artemis_2025.2.3,2025.2.4,Linux armv81,59.88023952,,,,,,,,,,,,,,,,,,,,,,,,,,,,,,,,,,,,,,,,,,,,,,,,,,,,,,,,,,,,,,,,,,,,,,,,,,,,,,,,,,,,,,,,,,,,,,,,,,,,,,,,,,witty,blue,1.184,88.9497,90.249,,[-0.3271484375],[-0.23729387919108072],[1],[0],[0],[0.5158999999761562],"[""trial_opt1_shape""]",0,38,38,38,1,emotional,153,Posx4,positive,1,,,,,,,,,,,,,,,,
,,,,,,,,,,,,,,,,test3,2,2020-01-01_00h00.00.000,stroop_artemis_2025.2.3,2025.2.4,Linux armv81,59.88023952,,,,,,,,,,,,,,,,,,,,,,,,,,,,,,,,,,,,,,,,,,,,,,,,,,,,,,,,,,,,,,,,,,,,,,,,,,,,,,,,,,,,,,,,,,,,,,,,,,,,,,,,,,darling,blue,1.067,90.2497,91.424,,[-0.27880855401357013],[-0.18968645731608072],[1],[0],[0],[0.5991000000238387],"[""trial_opt1_shape""]",0,39,39,39,1,emotional,153,Posx4,positive,0,,,,,,,,,,,,,,,,
,,,,,,,,,,,,,,,,test3,2,2020-01-01_00h00.00.000,stroop_artemis_2025.2.3,2025.2.4,Linux armv81,59.88023952,,,,,,,,,,,,,,,,,,,,,,,,,,,,,,,,,,,,,,,,,,,,,,,,,,,,,,,,,,,,,,,,,,,,,,,,,,,,,,,,,,,,,,,,,,,,,,,,,,,,,,,,,,optimist,blue,1.134,91.4246,92.6742,,[-0.27465816338857013],[-0.22883033752441406],[1],[0],[0],[0.4993000000119281],"[""trial_opt1_shape""]",0,40,40,40,1,emotional,153,Posx4,positive,0,PosNoSwitch,,,,,,,,,,,,,,,
,,,,,,,,,,,,,,,,test3,2,2020-01-01_00h00.00.000,stroop_artemis_2025.2.3,2025.2.4,Linux armv81,59.88023952,,,,,,,,,,,,,,,,,,,,,,,,,,,,,,,,,,,,,,,,,,,,,,,,,,,,,,,,,,,,,,,,,,,,,,,,,,,,,,,,,,,,,,,,,,,,,,,,,,,,,,,,,,wheat,saddlebrown,1.017,92.6748,93.799,,[0.0541992982228597],[-0.26268450419108075],[1],[0],[0],[0.4989000000357606],"[""trial_opt2_shape""]",0,41,41,41,1,emotional,154,Neutx2_Pos,neutral,1,,,,,,,,,,,,,,,,
,,,,,,,,,,,,,,,,test3,2,2020-01-01_00h00.00.000,stroop_artemis_2025.2.3,2025.2.4,Linux armv81,59.88023952,,,,,,,,,,,,,,,,,,,,,,,,,,,,,,,,,,,,,,,,,,,,,,,,,,,,,,,,,,,,,,,,,,,,,,,,,,,,,,,,,,,,,,,,,,,,,,,,,,,,,,,,,,number,saddlebrown,1.084,93.7996,94.999,,[0.0270996888478597],[-0.2727349599202474],[1],[0],[0],[0.46589999997615905],"[""trial_opt2_shape""]",0,42,42,42,1,emotional,154,Neutx2_Pos,neutral,0,,,,,,,,,,,,,,,,
,,,,,,,,,,,,,,,,test3,2,2020-01-01_00h00.00.000,stroop_artemis_2025.2.3,2025.2.4,Linux armv81,59.88023952,,,,,,,,,,,,,,,,,,,,,,,,,,,,,,,,,,,,,,,,,,,,,,,,,,,,,,,,,,,,,,,,,,,,,,,,,,,,,,,,,,,,,,,,,,,,,,,,,,,,,,,,,,love,blue,1.184,94.9998,96.2991,,[-0.27807613213857013],[-0.20079485575358072],[1],[0],[0],[0.64910000002385],"[""trial_opt1_shape""]",0,43,43,43,1,emotional,154,Neutx2_Pos,positive,1,NeutPosSwitch,,,,,,,,,,,,,,,
,,,,,,,,,,,,,,,,test3,2,2020-01-01_00h00.00.000,stroop_artemis_2025.2.3,2025.2.4,Linux armv81,59.88023952,,,,,,,,,,,,,,,,,,,,,,,,,,,,,,,,,,,,,,,,,,,,,,,,,,,,,,,,,,,,,,,,,,,,,,,,,,,,,,,,,,,,,,,,,,,,,,,,,,,,,,,,,,close,saddlebrown,1.15,96.2998,97.5656,,[0.0302735169728597],[-0.28807512919108075],[1],[0],[0],[0.482300000011918],"[""trial_opt2_shape""]",0,44,44,44,1,emotional,155,Neutx4_Pos,neutral,1,,,,,,,,,,,,,,,,
,,,,,,,,,,,,,,,,test3,2,2020-01-01_00h00.00.000,stroop_artemis_2025.2.3,2025.2.4,Linux armv81,59.88023952,,,,,,,,,,,,,,,,,,,,,,,,,,,,,,,,,,,,,,,,,,,,,,,,,,,,,,,,,,,,,,,,,,,,,,,,,,,,,,,,,,,,,,,,,,,,,,,,,,,,,,,,,,hour,saddlebrown,1.167,97.5663,98.849,,[0.0288086732228597],[-0.25316301981608075],[1],[0],[0],[0.6159000000357651],"[""trial_opt2_shape""]",0,45,45,45,1,emotional,155,Neutx4_Pos,neutral,0,,,,,,,,,,,,,,,,
,,,,,,,,,,,,,,,,test3,2,2020-01-01_00h00.00.000,stroop_artemis_2025.2.3,2025.2.4,Linux armv81,59.88023952,,,,,,,,,,,,,,,,,,,,,,,,,,,,,,,,,,,,,,,,,,,,,,,,,,,,,,,,,,,,,,,,,,,,,,,,,,,,,,,,,,,,,,,,,,,,,,,,,,,,,,,,,,bright,hotpink,1.2,98.8498,100.1658,,[0.25146484375],[-0.20555559794108072],[1],[0],[0],[0.49919999998807896],"[""trial_opt3_shape""]",0,46,46,46,1,emotional,155,Neutx4_Pos,positive,1,NeutPosSwitch,,,,,,,,,,,,,,,
,,,,,,,,,,,,,,,,test3,2,2020-01-01_00h00.00.000,stroop_artemis_2025.2.3,2025.2.4,Linux armv81,59.88023952,,,,,,,,,,,,,,,,,,,,,,,,,,,,,,,,,,,,,,,,,,,,,,,,,,,,,,,,,,,,,,,,,,,,,,,,,,,,,,,,,,,,,,,,,,,,,,,,,,,,,,,,,,stomach,saddlebrown,1.034,100.1665,101.3157,,[0.0373535950978597],[-0.26744524637858075],[1],[0],[0],[0.582499999999996],"[""trial_opt2_shape""]",0,47,47,47,1,emotional,156,Neutx3_Neg,neutral,1,,,,,,,,,,,,,,,,
,,,,,,,,,,,,,,,,test3,2,2020-01-01_00h00.00.000,stroop_artemis_2025.2.3,2025.2.4,Linux armv81,59.88023952,,,,,,,,,,,,,,,,,,,,,,,,,,,,,,,,,,,,,,,,,,,,,,,,,,,,,,,,,,,,,,,,,,,,,,,,,,,,,,,,,,,,,,,,,,,,,,,,,,,,,,,,,,crowd,saddlebrown,1,101.3163,102.4324,,[0.0461426575978597],[-0.2219537099202474],[1],[0],[0],[0.49919999998807896],"[""trial_opt2_shape""]",0,48,48,48,1,emotional,156,Neutx3_Neg,neutral,0,,,,,,,,,,,,,,,,
,,,,,,,,,,,,,,,,test3,2,2020-01-01_00h00.00.000,stroop_artemis_2025.2.3,2025.2.4,Linux armv81,59.88023952,,,,,,,,,,,,,,,,,,,,,,,,,,,,,,,,,,,,,,,,,,,,,,,,,,,,,,,,,,,,,,,,,,,,,,,,,,,,,,,,,,,,,,,,,,,,,,,,,,,,,,,,,,pathetic,hotpink,1.1,102.4332,103.6489,,[0.2746583620707194],[-0.20079485575358072],[1],[0],[0],[0.5321999999880802],"[""trial_opt3_shape""]",0,49,49,49,1,emotional,156,Neutx3_Neg,negative,1,NeutNegSwitch,,,,,,,,,,,,,,,
,,,,,,,,,,,,,,,,test3,2,2020-01-01_00h00.00.000,stroop_artemis_2025.2.3,2025.2.4,Linux armv81,59.88023952,,,,,,,,,,,,,,,,,,,,,,,,,,,,,,,,,,,,,,,,,,,,,,,,,,,,,,,,,,,,,,,,,,,,,,,,,,,,,,,,,,,,,,,,,,,,,,,,,,,,,,,,,,sword,blue,1.117,103.6497,104.8824,,[-0.3437499801317851],[-0.2044976552327474],[1],[0],[0],[0.582499999999996],"[""trial_opt1_shape""]",0,50,50,50,1,emotional,157,Neutx5_Neg,neutral,1,,,,,,,,,,,,,,,,
,,,,,,,,,,,,,,,,test3,2,2020-01-01_00h00.00.000,stroop_artemis_2025.2.3,2025.2.4,Linux armv81,59.88023952,,,,,,,,,,,,,,,,,,,,,,,,,,,,,,,,,,,,,,,,,,,,,,,,,,,,,,,,,,,,,,,,,,,,,,,,,,,,,,,,,,,,,,,,,,,,,,,,,,,,,,,,,,vote,blue,1.05,104.8832,106.0491,,[-0.29541011651357013],[-0.1949761708577474],[1],[0],[0],[0.4987999999523254],"[""trial_opt1_shape""]",0,51,51,51,1,emotional,157,Neutx5_Neg,neutral,0,,,,,,,,,,,,,,,,
,,,,,,,,,,,,,,,,test3,2,2020-01-01_00h00.00.000,stroop_artemis_2025.2.3,2025.2.4,Linux armv81,59.88023952,,,,,,,,,,,,,,,,,,,,,,,,,,,,,,,,,,,,,,,,,,,,,,,,,,,,,,,,,,,,,,,,,,,,,,,,,,,,,,,,,,,,,,,,,,,,,,,,,,,,,,,,,,clumsy,blue,1.184,106.0498,107.3492,,[-0.31005859375],[-0.2044976552327474],[1],[0],[0],[0.4988999999761603],"[""trial_opt1_shape""]",0,52,52,52,1,emotional,157,Neutx5_Neg,negative,0,NeutNegNoSwitch,,,,,,,,,,,,,,,
,,,,,,,,,,,,,,,,test3,2,2020-01-01_00h00.00.000,stroop_artemis_2025.2.3,2025.2.4,Linux armv81,59.88023952,,,,,,,,,,,,,,,,,,,,,,,,,,,,,,,,,,,,,,,,,,,,,,,,,,,,,,,,,,,,,,,,,,,,,,,,,,,,,,,,,,,,,,,,,,,,,,,,,,,,,,,,,,tiny,saddlebrown,1.084,107.3501,108.5407,,[0.0581055482228597],[-0.22406959533691406],[1],[0],[0],[0.6484000000357639],"[""trial_opt2_shape""]",0,53,53,53,1,emotional,158,Neutx3_Neg,neutral,1,,,,,,,,,,,,,,,,
,,,,,,,,,,,,,,,,test3,2,2020-01-01_00h00.00.000,stroop_artemis_2025.2.3,2025.2.4,Linux armv81,59.88023952,,,,,,,,,,,,,,,,,,,,,,,,,,,,,,,,,,,,,,,,,,,,,,,,,,,,,,,,,,,,,,,,,,,,,,,,,,,,,,,,,,,,,,,,,,,,,,,,,,,,,,,,,,existing,saddlebrown,1.2,108.5413,109.8492,,[0.0622559388478597],[-0.2568658192952474],[1],[0],[0],[0.5825000000000102],"[""trial_opt2_shape""]",0,54,54,54,1,emotional,158,Neutx3_Neg,neutral,0,,,,,,,,,,,,,,,,
,,,,,,,,,,,,,,,,test3,2,2020-01-01_00h00.00.000,stroop_artemis_2025.2.3,2025.2.4,Linux armv81,59.88023952,,,,,,,,,,,,,,,,,,,,,,,,,,,,,,,,,,,,,,,,,,,,,,,,,,,,,,,,,,,,,,,,,,,,,,,,,,,,,,,,,,,,,,,,,,,,,,,,,,,,,,,,,,inadequate,saddlebrown,1.017,109.85,110.9824,,[0.0407715638478597],[-0.24998919169108072],[1],[0],[0],[0.4486999999880794],"[""trial_opt2_shape""]",0,55,55,55,1,emotional,158,Neutx3_Neg,negative,0,NeutNegNoSwitch,,,,,,,,,,,,,,,
,,,,,,,,,,,,,,,,test3,2,2020-01-01_00h00.00.000,stroop_artemis_2025.2.3,2025.2.4,Linux armv81,59.88023952,,,,,,,,,,,,,,,,,,,,,,,,,,,,,,,,,,,,,,,,,,,,,,,,,,,,,,,,,,,,,,,,,,,,,,,,,,,,,,,,,,,,,,,,,,,,,,,,,,,,,,,,,,unbutton,hotpink,1.034,110.9832,112.124,,[0.224609375],[-0.2092583974202474],[1],[0],[0],[0.5156999999880725],"[""trial_opt3_shape""]",0,56,56,56,1,emotional,159,Neutx4_Neg,neutral,1,,,,,,,,,,,,,,,,
,,,,,,,,,,,,,,,,test3,2,2020-01-01_00h00.00.000,stroop_artemis_2025.2.3,2025.2.4,Linux armv81,59.88023952,,,,,,,,,,,,,,,,,,,,,,,,,,,,,,,,,,,,,,,,,,,,,,,,,,,,,,,,,,,,,,,,,,,,,,,,,,,,,,,,,,,,,,,,,,,,,,,,,,,,,,,,,,sunscreen,hotpink,1.15,112.1247,113.3824,,[0.255126953125],[-0.2251275380452474],[1],[0],[0],[0.4823999999761668],"[""trial_opt3_shape""]",0,57,57,57,1,emotional,159,Neutx4_Neg,neutral,0,,,,,,,,,,,,,,,,
,,,,,,,,,,,,,,,,test3,2,2020-01-01_00h00.00.000,stroop_artemis_2025.2.3,2025.2.4,Linux armv81,59.88023952,,,,,,,,,,,,,,,,,,,,,,,,,,,,,,,,,,,,,,,,,,,,,,,,,,,,,,,,,,,,,,,,,,,,,,,,,,,,,,,,,,,,,,,,,,,,,,,,,,,,,,,,,,unimportant,hotpink,1.067,113.383,114.5574,,[0.2722169558207194],[-0.27802467346191406],[1],[0],[0],[0.48239999997615257],"[""trial_opt3_shape""]",0,58,58,58,1,emotional,159,Neutx4_Neg,negative,0,NeutNegNoSwitch,,,,,,,,,,,,,,,
,,,,,,,,,,,,,,,,test3,2,2020-01-01_00h00.00.000,stroop_artemis_2025.2.3,2025.2.4,Linux armv81,59.88023952,,,,,,,,,,,,,,,,,,,,,,,,,,,,,,,,,,,,,,,,,,,,,,,,,,,,,,,,,,,,,,,,,,,,,,,,,,,,,,,,,,,,,,,,,,,,,,,,,,,,,,,,,,joke,blue,1.1,114.5582,115.7657,,[-0.31396484375],[-0.2108453114827474],[1],[0],[0],[0.4159999999999968],"[""trial_opt1_shape""]",0,59,59,59,1,emotional,160,Posx2,positive,1,,,,,,,,,,,,,,,,
,,,,,,,,,,,,,,,,test3,2,2020-01-01_00h00.00.000,stroop_artemis_2025.2.3,2025.2.4,Linux armv81,59.88023952,,,,,,,,,,,,,,,,,,,,,,,,,,,,,,,,,,,,,,,,,,,,,,,,,,,,,,,,,,,,,,,,,,,,,,,,,,,,,,,,,,,,,,,,,,,,,,,,,,,,,,,,,,loyal,blue,1.134,115.7665,117.0156,,[-0.33251953125],[-0.2346490224202474],[1],[0],[0],[0.3323000000119265],"[""trial_opt1_shape""]",0,60,60,60,1,emotional,160,Posx2,positive,0,PosNoSwitch,,,,,,,,,,,,,,,
,,,,,,,,,,,,,,,,test3,2,2020-01-01_00h00.00.000,stroop_artemis_2025.2.3,2025.2.4,Linux armv81,59.88023952,,,,,,,,,,,,,,,,,,,,,,,,,,,,,,,,,,,,,,,,,,,,,,,,,,,,,,,,,,,,,,,,,,,,,,,,,,,,,,,,,,,,,,,,,,,,,,,,,,,,,,,,,,topic,hotpink,1,117.0163,118.1241,,[0.2775880495707194],[-0.19867897033691406],[1],[0],[0],[0.5658000000119188],"[""trial_opt3_shape""]",0,61,61,61,1,emotional,161,Neutx5_Pos,neutral,1,,,,,,,,,,,,,,,,
,,,,,,,,,,,,,,,,test3,2,2020-01-01_00h00.00.000,stroop_artemis_2025.2.3,2025.2.4,Linux armv81,59.88023952,,,,,,,,,,,,,,,,,,,,,,,,,,,,,,,,,,,,,,,,,,,,,,,,,,,,,,,,,,,,,,,,,,,,,,,,,,,,,,,,,,,,,,,,,,,,,,,,,,,,,,,,,,graphic,hotpink,1.167,118.1249,119.4075,,[0.25634765625],[-0.23412005106608072],[1],[0],[0],[0.46569999998808953],"[""trial_opt3_shape""]",0,62,62,62,1,emotional,161,Neutx5_Pos,neutral,0,,,,,,,,,,,,,,,,
,,,,,,,,,,,,,,,,test3,2,2020-01-01_00h00.00.000,stroop_artemis_2025.2.3,2025.2.4,Linux armv81,59.88023952,,,,,,,,,,,,,,,,,,,,,,,,,,,,,,,,,,,,,,,,,,,,,,,,,,,,,,,,,,,,,,,,,,,,,,,,,,,,,,,,,,,,,,,,,,,,,,,,,,,,,,,,,,delighted,saddlebrown,1.117,119.4082,120.6324,,[-0.0166014830271403],[-0.1902154286702474],[1],[0],[0],[0.7155999999642404],"[""trial_opt2_shape""]",0,63,63,63,1,emotional,161,Neutx5_Pos,positive,1,NeutPosSwitch,,,,,,,,,,,,,,,
,,,,,,,,,,,,,,,,test3,2,2020-01-01_00h00.00.000,stroop_artemis_2025.2.3,2025.2.4,Linux armv81,59.88023952,,,,,,,,,,,,,,,,,,,,,,,,,,,,,,,,,,,,,,,,,,,,,,,,,,,,,,,,,,,,,,,,,,,,,,,,,,,,,,,,,,,,,,,,,,,,,,,,,,,,,,,,,,sprint,blue,1.05,120.6331,121.7908,,[-0.32568359375],[-0.22618548075358072],[1],[0],[0],[0.5158999999761704],"[""trial_opt1_shape""]",0,64,64,64,1,emotional,162,Neutx4_Pos,neutral,1,,,,,,,,,,,,,,,,
,,,,,,,,,,,,,,,,test3,2,2020-01-01_00h00.00.000,stroop_artemis_2025.2.3,2025.2.4,Linux armv81,59.88023952,,,,,,,,,,,,,,,,,,,,,,,,,,,,,,,,,,,,,,,,,,,,,,,,,,,,,,,,,,,,,,,,,,,,,,,,,,,,,,,,,,,,,,,,,,,,,,,,,,,,,,,,,,password,blue,1.034,121.7914,122.9408,,[-0.30615230401357013],[-0.21825091044108072],[1],[0],[0],[0.5822000000476635],"[""trial_opt1_shape""]",0,65,65,65,1,emotional,162,Neutx4_Pos,neutral,0,,,,,,,,,,,,,,,,
,,,,,,,,,,,,,,,,test3,2,2020-01-01_00h00.00.000,stroop_artemis_2025.2.3,2025.2.4,Linux armv81,59.88023952,,,,,,,,,,,,,,,,,,,,,,,,,,,,,,,,,,,,,,,,,,,,,,,,,,,,,,,,,,,,,,,,,,,,,,,,,,,,,,,,,,,,,,,,,,,,,,,,,,,,,,,,,,friendship,saddlebrown,1.117,122.9416,124.1742,,[0.0510254700978597],[-0.2330621083577474],[1],[0],[0],[0.5988999999761546],"[""trial_opt2_shape""]",0,66,66,66,1,emotional,162,Neutx4_Pos,positive,1,NeutPosSwitch,,,,,,,,,,,,,,,
,,,,,,,,,,,,,,,,test3,2,2020-01-01_00h00.00.000,stroop_artemis_2025.2.3,2025.2.4,Linux armv81,59.88023952,,,,,,,,,,,,,,,,,,,,,,,,,,,,,,,,,,,,,,,,,,,,,,,,,,,,,,,,,,,,,,,,,,,,,,,,,,,,,,,,,,,,,,,,,,,,,,,,,,,,,,,,,,frame,blue,1.167,124.1749,125.4574,,[-0.30493160088857013],[-0.2267144521077474],[1],[0],[0],[0.41550000000000864],"[""trial_opt1_shape""]",0,67,67,67,1,emotional,163,Neutx4_Pos,neutral,1,,,,,,,,,,,,,,,,
,,,,,,,,,,,,,,,,test3,2,2020-01-01_00h00.00.000,stroop_artemis_2025.2.3,2025.2.4,Linux armv81,59.88023952,,,,,,,,,,,,,,,,,,,,,,,,,,,,,,,,,,,,,,,,,,,,,,,,,,,,,,,,,,,,,,,,,,,,,,,,,,,,,,,,,,,,,,,,,,,,,,,,,,,,,,,,,,steer,blue,1.05,125.4582,126.6157,,[-0.3125],[-0.1838677724202474],[1],[0],[0],[0.6488000000119314],"[""trial_opt1_shape""]",0,68,68,68,1,emotional,164,Neutx4_Pos,neutral,0,,,,,,,,,,,,,,,,
,,,,,,,,,,,,,,,,test3,2,2020-01-01_00h00.00.000,stroop_artemis_2025.2.3,2025.2.4,Linux armv81,59.88023952,,,,,,,,,,,,,,,,,,,,,,,,,,,,,,,,,,,,,,,,,,,,,,,,,,,,,,,,,,,,,,,,,,,,,,,,,,,,,,,,,,,,,,,,,,,,,,,,,,,,,,,,,,tranquil,blue,1.134,126.6164,127.8658,,[-0.30200191338857013],[-0.21772193908691406],[1],[0],[0],[0.5326000000238196],"[""trial_opt1_shape""]",0,69,69,69,1,emotional,163,Neutx4_Pos,positive,0,NeutPosNoSwitch,,,,,,,,,,,,,,,
,,,,,,,,,,,,,,,,test3,2,2020-01-01_00h00.00.000,stroop_artemis_2025.2.3,2025.2.4,Linux armv81,59.88023952,,,,,,,,,,,,,,,,,,,,,,,,,,,,,,,,,,,,,,,,,,,,,,,,,,,,,,,,,,,,,,,,,,,,,,,,,,,,,,,,,,,,,,,,,,,,,,,,,,,,,,,,,,whiskers,hotpink,1.084,127.8666,129.0658,,[0.244384765625],[-0.23200416564941406],[1],[0],[0],[0.648800000011903],"[""trial_opt3_shape""]",0,70,70,70,1,emotional,164,Neutx1_Pos,neutral,1,,,,,,,,,,,,,,,,
,,,,,,,,,,,,,,,,test3,2,2020-01-01_00h00.00.000,stroop_artemis_2025.2.3,2025.2.4,Linux armv81,59.88023952,,,,,,,,,,,,,,,,,,,,,,,,,,,,,,,,,,,,,,,,,,,,,,,,,,,,,,,,,,,,,,,,,,,,,,,,,,,,,,,,,,,,,,,,,,,,,,,,,,,,,,,,,,embrace,saddlebrown,1.067,129.0665,130.2491,,[0.0256348450978597],[-0.2568658192952474],[1],[0],[0],[0.6156000000238464],"[""trial_opt2_shape""]",0,71,71,71,1,emotional,164,Neutx1_Pos,positive,1,NeutPosSwitch,,,,,,,,,,,,,,,
,,,,,,,,,,,,,,,,test3,2,2020-01-01_00h00.00.000,stroop_artemis_2025.2.3,2025.2.4,Linux armv81,59.88023952,,,,,,,,,,,,,,,,,,,,,,,,,,,,,,,,,,,,,,,,,,,,,,,,,,,,,,,,,,,,,,,,,,,,,,,,,,,,,,,,,,,,,,,,,,,,,,,,,,,,,,,,,,guilt,hotpink,1.15,130.2498,131.5158,,[0.2761232058207194],[-0.20555559794108072],[1],[0],[0],[0.5823999999761611],"[""trial_opt3_shape""]",0,72,72,72,1,emotional,165,Negx4,negative,1,,,,,,,,,,,,,,,,
,,,,,,,,,,,,,,,,test3,2,2020-01-01_00h00.00.000,stroop_artemis_2025.2.3,2025.2.4,Linux armv81,59.88023952,,,,,,,,,,,,,,,,,,,,,,,,,,,,,,,,,,,,,,,,,,,,,,,,,,,,,,,,,,,,,,,,,,,,,,,,,,,,,,,,,,,,,,,,,,,,,,,,,,,,,,,,,,blunder,hotpink,1.2,131.5165,132.8324,,[0.2431640625],[-0.2013238271077474],[1],[0],[0],[0.48219999998809726],"[""trial_opt3_shape""]",0,73,73,73,1,emotional,165,Negx4,negative,0,,,,,,,,,,,,,,,,
,,,,,,,,,,,,,,,,test3,2,2020-01-01_00h00.00.000,stroop_artemis_2025.2.3,2025.2.4,Linux armv81,59.88023952,,,,,,,,,,,,,,,,,,,,,,,,,,,,,,,,,,,,,,,,,,,,,,,,,,,,,,,,,,,,,,,,,,,,,,,,,,,,,,,,,,,,,,,,,,,,,,,,,,,,,,,,,,lazy,hotpink,1.184,132.8332,134.1325,,[0.245849609375],[-0.19550514221191406],[1],[0],[0],[0.4654999999999916],"[""trial_opt3_shape""]",0,74,74,74,1,emotional,165,Negx4,negative,0,NegNoSwitch,,,,,,,,,,,,,,,
,,,,,,,,,,,,,,,,test3,2,2020-01-01_00h00.00.000,stroop_artemis_2025.2.3,2025.2.4,Linux armv81,59.88023952,,,,,,,,,,,,,,,,,,,,,,,,,,,,,,,,,,,,,,,,,,,,,,,,,,,,,,,,,,,,,,,,,,,,,,,,,,,,,,,,,,,,,,,,,,,,,,,,,,,,,,,,,,vacation,blue,1.1,134.1334,135.3491,,[-0.33056640625],[-0.22459856669108072],[1],[0],[0],[0.54849999999999],"[""trial_opt1_shape""]",0,75,75,75,1,emotional,166,Posx2,positive,1,,,,,,,,,,,,,,,,
,,,,,,,,,,,,,,,,test3,2,2020-01-01_00h00.00.000,stroop_artemis_2025.2.3,2025.2.4,Linux armv81,59.88023952,,,,,,,,,,,,,,,,,,,,,,,,,,,,,,,,,,,,,,,,,,,,,,,,,,,,,,,,,,,,,,,,,,,,,,,,,,,,,,,,,,,,,,,,,,,,,,,,,,,,,,,,,,talented,saddlebrown,1,135.3498,136.4657,,[0.0358887513478597],[-0.2663873036702474],[1],[0],[0],[0.6156999999880668],"[""trial_opt2_shape""]",0,76,76,76,1,emotional,166,Posx2,positive,1,PosSwitch,,,,,,,,,,,,,,,
,,,,,,,,,,,,,,,,test3,2,2020-01-01_00h00.00.000,stroop_artemis_2025.2.3,2025.2.4,Linux armv81,59.88023952,,,,,,,,,,,,,,,,,,,,,,,,,,,,,,,,,,,,,,,,,,,,,,,,,,,,,,,,,,,,,,,,,,,,,,,,,,,,,,,,,,,,,,,,,,,,,,,,,,,,,,,,,,secure,saddlebrown,1.017,136.4665,137.5992,,[0.0661621888478597],[-0.22089576721191406],[1],[0],[0],[0.5657000000476842],"[""trial_opt2_shape""]",0,77,77,77,1,emotional,167,Posx3,positive,0,,,,,,,,,,,,,,,,
,,,,,,,,,,,,,,,,test3,2,2020-01-01_00h00.00.000,stroop_artemis_2025.2.3,2025.2.4,Linux armv81,59.88023952,,,,,,,,,,,,,,,,,,,,,,,,,,,,,,,,,,,,,,,,,,,,,,,,,,,,,,,,,,,,,,,,,,,,,,,,,,,,,,,,,,,,,,,,,,,,,,,,,,,,,,,,,,lucky,hotpink,1.05,137.5998,138.7658,,[0.261474609375],[-0.19867897033691406],[1],[0],[0],[0.6989999999999839],"[""trial_opt3_shape""]",0,78,78,78,1,emotional,167,Posx3,positive,1,PosSwitch,,,,,,,,,,,,,,,
,,,,,,,,,,,,,,,,test3,2,2020-01-01_00h00.00.000,stroop_artemis_2025.2.3,2025.2.4,Linux armv81,59.88023952,,,,,,,,,,,,,,,,,,,,,,,,,,,,,,,,,,,,,,,,,,,,,,,,,,,,,,,,,,,,,,,,,,,,,,,,,,,,,,,,,,,,,,,,,,,,,,,,,,,,,,,,,,shop,blue,1.117,138.7665,139.999,,[-0.32421875],[-0.2521050771077474],[1],[0],[0],[0.5157000000476728],"[""trial_opt1_shape""]",0,79,79,79,1,emotional,168,Neutx4_Neg,neutral,1,,,,,,,,,,,,,,,,
,,,,,,,,,,,,,,,,test3,2,2020-01-01_00h00.00.000,stroop_artemis_2025.2.3,2025.2.4,Linux armv81,59.88023952,,,,,,,,,,,,,,,,,,,,,,,,,,,,,,,,,,,,,,,,,,,,,,,,,,,,,,,,,,,,,,,,,,,,,,,,,,,,,,,,,,,,,,,,,,,,,,,,,,,,,,,,,,electricity,blue,1.034,139.9997,141.1408,,[-0.322021484375],[-0.24469947814941406],[1],[0],[0],[0.5660000000000025],"[""trial_opt1_shape""]",0,80,80,80,1,emotional,168,Neutx4_Neg,neutral,0,,,,,,,,,,,,,,,,
,,,,,,,,,,,,,,,,test3,2,2020-01-01_00h00.00.000,stroop_artemis_2025.2.3,2025.2.4,Linux armv81,59.88023952,,,,,,,,,,,,,,,,,,,,,,,,,,,,,,,,,,,,,,,,,,,,,,,,,,,,,,,,,,,,,,,,,,,,,,,,,,,,,,,,,,,,,,,,,,,,,,,,,,,,,,,,,,pitiful,blue,1.184,141.1415,142.441,,[-0.312255859375],[-0.22565650939941406],[1],[0],[0],[0.4491999999880818],"[""trial_opt1_shape""]",0,81,81,81,1,emotional,168,Neutx4_Neg,negative,0,NeutNegNoSwitch,,,,,,,,,,,,,,,
,,,,,,,,,,,,,,,,test3,2,2020-01-01_00h00.00.000,stroop_artemis_2025.2.3,2025.2.4,Linux armv81,59.88023952,,,,,,,,,,,,,,,,,,,,,,,,,,,,,,,,,,,,,,,,,,,,,,,,,,,,,,,,,,,,,,,,,,,,,,,,,,,,,,,,,,,,,,,,,,,,,,,,,,,,,,,,,,deal,saddlebrown,1.1,142.4419,143.6575,,[0.0451660950978597],[-0.2759087880452474],[1],[0],[0],[0.6316000000238375],"[""trial_opt2_shape""]",0,82,82,82,1,emotional,169,Neutx1_Neg,neutral,1,,,,,,,,,,,,,,,,
,,,,,,,,,,,,,,,,test3,2,2020-01-01_00h00.00.000,stroop_artemis_2025.2.3,2025.2.4,Linux armv81,59.88023952,,,,,,,,,,,,,,,,,,,,,,,,,,,,,,,,,,,,,,,,,,,,,,,,,,,,,,,,,,,,,,,,,,,,,,,,,,,,,,,,,,,,,,,,,,,,,,,,,,,,,,,,,,sin,hotpink,1.2,143.6583,144.9741,,[0.260986328125],[-0.18915748596191406],[1],[0],[0],[0.5823000000119123],"[""trial_opt3_shape""]",0,83,83,83,1,emotional,169,Neutx1_Neg,negative,1,NeutNegSwitch,,,,,,,,,,,,,,,
,,,,,,,,,,,,,,,,test3,2,2020-01-01_00h00.00.000,stroop_artemis_2025.2.3,2025.2.4,Linux armv81,59.88023952,,,,,,,,,,,,,,,,,,,,,,,,,,,,,,,,,,,,,,,,,,,,,,,,,,,,,,,,,,,,,,,,,,,,,,,,,,,,,,,,,,,,,,,,,,,,,,,,,,,,,,,,,,cute,saddlebrown,1.017,144.9749,146.1074,,[0.0310059388478597],[-0.26427141825358075],[1],[0],[0],[0.5489999999999782],"[""trial_opt2_shape""]",0,84,84,84,1,emotional,170,Posx4,positive,1,,,,,,,,,,,,,,,,
,,,,,,,,,,,,,,,,test3,2,2020-01-01_00h00.00.000,stroop_artemis_2025.2.3,2025.2.4,Linux armv81,59.88023952,,,,,,,,,,,,,,,,,,,,,,,,,,,,,,,,,,,,,,,,,,,,,,,,,,,,,,,,,,,,,,,,,,,,,,,,,,,,,,,,,,,,,,,,,,,,,,,,,,,,,,,,,,sociable,saddlebrown,1.067,146.1082,147.2908,,[0.013916095097859701],[-0.20238176981608072],[1],[0],[0],[0.5822999999523404],"[""trial_opt2_shape""]",0,85,85,85,1,emotional,170,Posx4,positive,0,,,,,,,,,,,,,,,,
,,,,,,,,,,,,,,,,test3,2,2020-01-01_00h00.00.000,stroop_artemis_2025.2.3,2025.2.4,Linux armv81,59.88023952,,,,,,,,,,,,,,,,,,,,,,,,,,,,,,,,,,,,,,,,,,,,,,,,,,,,,,,,,,,,,,,,,,,,,,,,,,,,,,,,,,,,,,,,,,,,,,,,,,,,,,,,,,miracle,blue,1.134,147.2917,148.5409,,[-0.28833003838857013],[-0.22565650939941406],[1],[0],[0],[0.59880000001192],"[""trial_opt1_shape""]",0,86,86,86,1,emotional,170,Posx4,positive,1,PosSwitch,,,,,,,,,,,,,,,
,,,,,,,,,,,,,,,,test3,2,2020-01-01_00h00.00.000,stroop_artemis_2025.2.3,2025.2.4,Linux armv81,59.88023952,,,,,,,,,,,,,,,,,,,,,,,,,,,,,,,,,,,,,,,,,,,,,,,,,,,,,,,,,,,,,,,,,,,,,,,,,,,,,,,,,,,,,,,,,,,,,,,,,,,,,,,,,,testify,saddlebrown,1.167,148.5415,149.8241,,[0.0444336732228597],[-0.27855364481608075],[1],[0],[0],[0.6656000000238578],"[""trial_opt2_shape""]",0,87,87,87,1,emotional,171,Neutx1_Neg,neutral,1,,,,,,,,,,,,,,,,
,,,,,,,,,,,,,,,,test3,2,2020-01-01_00h00.00.000,stroop_artemis_2025.2.3,2025.2.4,Linux armv81,59.88023952,,,,,,,,,,,,,,,,,,,,,,,,,,,,,,,,,,,,,,,,,,,,,,,,,,,,,,,,,,,,,,,,,,,,,,,,,,,,,,,,,,,,,,,,,,,,,,,,,,,,,,,,,,waste,saddlebrown,1.15,149.8249,151.0908,,[0.0480957825978597],[-0.2219537099202474],[1],[0],[0],[0.6156000000238464],"[""trial_opt2_shape""]",0,88,88,88,1,emotional,171,Neutx1_Neg,negative,0,NeutNegNoSwitch,,,,,,,,,,,,,,,
,,,,,,,,,,,,,,,,test3,2,2020-01-01_00h00.00.000,stroop_artemis_2025.2.3,2025.2.4,Linux armv81,59.88023952,,,,,,,,,,,,,,,,,,,,,,,,,,,,,,,,,,,,,,,,,,,,,,,,,,,,,,,,,,,,,,,,,,,,,,,,,,,,,,,,,,,,,,,,,,,,,,,,,,,,,,,,,,failure,saddlebrown,1.084,151.0915,152.2909,,[0.0327149232228597],[-0.28331438700358075],[1],[0],[0],[0.4656000000238407],"[""trial_opt2_shape""]",0,89,89,89,1,emotional,172,Negx3,negative,0,,,,,,,,,,,,,,,,
,,,,,,,,,,,,,,,,test3,2,2020-01-01_00h00.00.000,stroop_artemis_2025.2.3,2025.2.4,Linux armv81,59.88023952,,,,,,,,,,,,,,,,,,,,,,,,,,,,,,,,,,,,,,,,,,,,,,,,,,,,,,,,,,,,,,,,,,,,,,,,,,,,,,,,,,,,,,,,,,,,,,,,,,,,,,,,,,bitter,saddlebrown,1,152.2917,153.4074,,[0.0415039857228597],[-0.24628639221191406],[1],[0],[0],[0.5488999999761575],"[""trial_opt2_shape""]",0,90,90,90,1,emotional,172,Negx3,negative,0,NegNoSwitch,,,,,,,,,,,,,,,
,,,,,,,,,,,,,,,,test3,2,2020-01-01_00h00.00.000,stroop_artemis_2025.2.3,2025.2.4,Linux armv81,59.88023952,,,,,,,,,,,,,,,,,,,,,,,,,,,,,,,,,,,,,,,,,,,,,,,,,,,,,,,,,,,,,,,,,,,,,,,,,,,,,,,,,,,,,,,,,,,,,,,,,,,,,,,,,,term,hotpink,1.167,153.4083,154.6824,,[0.2680665651957194],[-0.23041725158691406],[1],[0],[0],[0.5986999999880993],"[""trial_opt3_shape""]",0,91,91,91,1,emotional,173,Neutx2_Pos,neutral,1,,,,,,,,,,,,,,,,
,,,,,,,,,,,,,,,,test3,2,2020-01-01_00h00.00.000,stroop_artemis_2025.2.3,2025.2.4,Linux armv81,59.88023952,,,,,,,,,,,,,,,,,,,,,,,,,,,,,,,,,,,,,,,,,,,,,,,,,,,,,,,,,,,,,,,,,,,,,,,,,,,,,,,,,,,,,,,,,,,,,,,,,,,,,,,,,,form,hotpink,1.117,154.6832,155.9158,,[0.259521484375],[-0.2425835927327474],[1],[0],[0],[0.3821999999880745],"[""trial_opt3_shape""]",0,92,92,92,1,emotional,173,Neutx2_Pos,neutral,0,,,,,,,,,,,,,,,,
,,,,,,,,,,,,,,,,test3,2,2020-01-01_00h00.00.000,stroop_artemis_2025.2.3,2025.2.4,Linux armv81,59.88023952,,,,,,,,,,,,,,,,,,,,,,,,,,,,,,,,,,,,,,,,,,,,,,,,,,,,,,,,,,,,,,,,,,,,,,,,,,,,,,,,,,,,,,,,,,,,,,,,,,,,,,,,,,noble,hotpink,1.184,155.9166,157.2157,,[0.260009765625],[-0.23729387919108072],[1],[0],[0],[0.5153999999761538],"[""trial_opt3_shape""]",0,93,93,93,1,emotional,173,Neutx2_Pos,positive,0,NeutPosNoSwitch,,,,,,,,,,,,,,,
,,,,,,,,,,,,,,,,test3,2,2020-01-01_00h00.00.000,stroop_artemis_2025.2.3,2025.2.4,Linux armv81,59.88023952,,,,,,,,,,,,,,,,,,,,,,,,,,,,,,,,,,,,,,,,,,,,,,,,,,,,,,,,,,,,,,,,,,,,,,,,,,,,,,,,,,,,,,,,,,,,,,,,,,,,,,,,,,kickoff,saddlebrown,1.05,157.2166,158.3825,,[0.0187989075978597],[-0.21454811096191406],[1],[0],[0],[0.7819999999999823],"[""trial_opt2_shape""]",0,94,94,94,1,emotional,174,Neutx4_Neg,neutral,1,,,,,,,,,,,,,,,,
,,,,,,,,,,,,,,,,test3,2,2020-01-01_00h00.00.000,stroop_artemis_2025.2.3,2025.2.4,Linux armv81,59.88023952,,,,,,,,,,,,,,,,,,,,,,,,,,,,,,,,,,,,,,,,,,,,,,,,,,,,,,,,,,,,,,,,,,,,,,,,,,,,,,,,,,,,,,,,,,,,,,,,,,,,,,,,,,verbal,saddlebrown,1,158.3832,159.4991,,[0.0419922669728597],[-0.22935930887858072],[1],[0],[0],[0.815600000023835],"[""trial_opt2_shape""]",0,95,95,95,1,emotional,174,Neutx4_Neg,neutral,0,,,,,,,,,,,,,,,,
,,,,,,,,,,,,,,,,test3,2,2020-01-01_00h00.00.000,stroop_artemis_2025.2.3,2025.2.4,Linux armv81,59.88023952,,,,,,,,,,,,,,,,,,,,,,,,,,,,,,,,,,,,,,,,,,,,,,,,,,,,,,,,,,,,,,,,,,,,,,,,,,,,,,,,,,,,,,,,,,,,,,,,,,,,,,,,,,foolish,hotpink,1.084,159.4998,160.6907,,[0.2795411745707194],[-0.20661354064941406],[1],[0],[0],[0.7323000000119464],"[""trial_opt3_shape""]",0,96,96,96,1,emotional,174,Neutx4_Neg,negative,1,NeutNegSwitch,,,,,,,,,,,,,,,
,,,,,,,,,,,,,,,,test3,2,2020-01-01_00h00.00.000,stroop_artemis_2025.2.3,2025.2.4,Linux armv81,59.88023952,,,,,,,,,,,,,,,,,,,,,,,,,,,,,,,,,,,,,,,,,,,,,,,,,,,,,,,,,,,,,,,,,,,,,,,,,,,,,,,,,,,,,,,,,,,,,,,,,,,,,,,,,,firecracker,blue,1.134,160.6914,161.9326,,[-0.31982421875],[-0.25422096252441406],[1],[0],[0],[0.5158000000119216],"[""trial_opt1_shape""]",0,97,97,97,1,emotional,175,Neutx3_Neg,neutral,1,,,,,,,,,,,,,,,,
,,,,,,,,,,,,,,,,test3,2,2020-01-01_00h00.00.000,stroop_artemis_2025.2.3,2025.2.4,Linux armv81,59.88023952,,,,,,,,,,,,,,,,,,,,,,,,,,,,,,,,,,,,,,,,,,,,,,,,,,,,,,,,,,,,,,,,,,,,,,,,,,,,,,,,,,,,,,,,,,,,,,,,,,,,,,,,,,insect,blue,1.15,161.9333,163.1991,,[-0.29296871026357013],[-0.2600396474202474],[1],[0],[0],[0.59880000001192],"[""trial_opt1_shape""]",0,98,98,98,1,emotional,175,Neutx3_Neg,neutral,0,,,,,,,,,,,,,,,,
,,,,,,,,,,,,,,,,test3,2,2020-01-01_00h00.00.000,stroop_artemis_2025.2.3,2025.2.4,Linux armv81,59.88023952,,,,,,,,,,,,,,,,,,,,,,,,,,,,,,,,,,,,,,,,,,,,,,,,,,,,,,,,,,,,,,,,,,,,,,,,,,,,,,,,,,,,,,,,,,,,,,,,,,,,,,,,,,ashamed,hotpink,1.034,163.2,164.3407,,[0.2687989870707194],[-0.2013238271077474],[1],[0],[0],[0.8323000000119123],"[""trial_opt3_shape""]",0,99,99,99,1,emotional,175,Neutx3_Neg,negative,1,NeutNegSwitch,,,,,,,,,,,,,,,
,,,,,,,,,,,,,,,,test3,2,2020-01-01_00h00.00.000,stroop_artemis_2025.2.3,2025.2.4,Linux armv81,59.88023952,,,,,,,,,,,,,,,,,,,,,,,,,,,,,,,,,,,,,,,,,,,,,,,,,,,,,,,,,,,,,,,,,,,,,,,,,,,,,,,,,,,,,,,,,,,,,,,,,,,,,,,,,,greeting,saddlebrown,1.067,164.3414,165.5158,,[0.0510254700978597],[-0.2346490224202474],[1],[0],[0],[0.6658000000118989],"[""trial_opt2_shape""]",0,100,100,100,1,emotional,176,Neutx1_Pos,neutral,1,,,,,,,,,,,,,,,,
,,,,,,,,,,,,,,,,test3,2,2020-01-01_00h00.00.000,stroop_artemis_2025.2.3,2025.2.4,Linux armv81,59.88023952,,,,,,,,,,,,,,,,,,,,,,,,,,,,,,,,,,,,,,,,,,,,,,,,,,,,,,,,,,,,,,,,,,,,,,,,,,,,,,,,,,,,,,,,,,,,,,,,,,,,,,,,,,humorous,hotpink,1.2,165.5166,166.8325,,[0.2829591433207194],[-0.25316301981608075],[1],[0],[0],[0.7489999999999952],"[""trial_opt3_shape""]",0,101,101,101,1,emotional,176,Neutx1_Pos,positive,1,NeutPosSwitch,,,,,,,,,,,,,,,
,,,,,,,,,,,,,,,,test3,2,2020-01-01_00h00.00.000,stroop_artemis_2025.2.3,2025.2.4,Linux armv81,59.88023952,,,,,,,,,,,,,,,,,,,,,,,,,,,,,,,,,,,,,,,,,,,,,,,,,,,,,,,,,,,,,,,,,,,,,,,,,,,,,,,,,,,,,,,,,,,,,,,,,,,,,,,,,,ginger,saddlebrown,1.017,166.8336,167.966,,[0.0385742982228597],[-0.27220598856608075],[1],[0],[0],[0.7318999999761502],"[""trial_opt2_shape""]",0,102,102,102,1,emotional,177,Neutx4_Pos,neutral,1,,,,,,,,,,,,,,,,
,,,,,,,,,,,,,,,,test3,2,2020-01-01_00h00.00.000,stroop_artemis_2025.2.3,2025.2.4,Linux armv81,59.88023952,,,,,,,,,,,,,,,,,,,,,,,,,,,,,,,,,,,,,,,,,,,,,,,,,,,,,,,,,,,,,,,,,,,,,,,,,,,,,,,,,,,,,,,,,,,,,,,,,,,,,,,,,,braid,saddlebrown,1.1,167.9669,169.1824,,[0.0268555482228597],[-0.2568658192952474],[1],[0],[0],[0.7483999999761579],"[""trial_opt2_shape""]",0,103,103,103,1,emotional,177,Neutx4_Pos,neutral,0,,,,,,,,,,,,,,,,
,,,,,,,,,,,,,,,,test3,2,2020-01-01_00h00.00.000,stroop_artemis_2025.2.3,2025.2.4,Linux armv81,59.88023952,,,,,,,,,,,,,,,,,,,,,,,,,,,,,,,,,,,,,,,,,,,,,,,,,,,,,,,,,,,,,,,,,,,,,,,,,,,,,,,,,,,,,,,,,,,,,,,,,,,,,,,,,,dream,hotpink,1.167,169.1833,170.4657,,[0.236083984375],[-0.24364153544108072],[1],[0],[0],[0.5321000000238598],"[""trial_opt3_shape""]",0,104,104,104,1,emotional,177,Neutx4_Pos,positive,1,NeutPosSwitch,,,,,,,,,,,,,,,
,,,,,,,,,,,,,,,,test3,2,2020-01-01_00h00.00.000,stroop_artemis_2025.2.3,2025.2.4,Linux armv81,59.88023952,,,,,,,,,,,,,,,,,,,,,,,,,,,,,,,,,,,,,,,,,,,,,,,,,,,,,,,,,,,,,,,,,,,,,,,,,,,,,,,,,,,,,,,,,,,,,,,,,,,,,,,,,,toolbox,blue,1.034,170.4665,171.6075,,[-0.27099605401357013],[-0.22935930887858072],[1],[0],[0],[0.565600000023835],"[""trial_opt1_shape""]",0,105,105,105,1,emotional,178,Neutx1_Pos,neutral,1,,,,,,,,,,,,,,,,
,,,,,,,,,,,,,,,,test3,2,2020-01-01_00h00.00.000,stroop_artemis_2025.2.3,2025.2.4,Linux armv81,59.88023952,,,,,,,,,,,,,,,,,,,,,,,,,,,,,,,,,,,,,,,,,,,,,,,,,,,,,,,,,,,,,,,,,,,,,,,,,,,,,,,,,,,,,,,,,,,,,,,,,,,,,,,,,,colorful,blue,1.2,171.6082,172.9241,,[-0.29907222588857013],[-0.2283013661702474],[1],[0],[0],[0.46579999995233834],"[""trial_opt1_shape""]",0,106,106,106,1,emotional,178,Neutx1_Pos,positive,0,NeutPosNoSwitch,,,,,,,,,,,,,,,
,,,,,,,,,,,,,,,,test3,2,2020-01-01_00h00.00.000,stroop_artemis_2025.2.3,2025.2.4,Linux armv81,59.88023952,,,,,,,,,,,,,,,,,,,,,,,,,,,,,,,,,,,,,,,,,,,,,,,,,,,,,,,,,,,,,,,,,,,,,,,,,,,,,,,,,,,,,,,,,,,,,,,,,,,,,,,,,,timer,saddlebrown,1,172.925,174.0409,,[0.0397950013478597],[-0.20872942606608072],[1],[0],[0],[0.632199999988103],"[""trial_opt2_shape""]",0,107,107,107,1,emotional,179,Neutx4_Pos,neutral,1,,,,,,,,,,,,,,,,
,,,,,,,,,,,,,,,,test3,2,2020-01-01_00h00.00.000,stroop_artemis_2025.2.3,2025.2.4,Linux armv81,59.88023952,,,,,,,,,,,,,,,,,,,,,,,,,,,,,,,,,,,,,,,,,,,,,,,,,,,,,,,,,,,,,,,,,,,,,,,,,,,,,,,,,,,,,,,,,,,,,,,,,,,,,,,,,,creaking,saddlebrown,1.1,174.0419,175.2493,,[0.0366211732228597],[-0.21137428283691406],[1],[0],[0],[0.5986000000238221],"[""trial_opt2_shape""]",0,108,108,108,1,emotional,179,Neutx4_Pos,neutral,0,,,,,,,,,,,,,,,,
,,,,,,,,,,,,,,,,test3,2,2020-01-01_00h00.00.000,stroop_artemis_2025.2.3,2025.2.4,Linux armv81,59.88023952,,,,,,,,,,,,,,,,,,,,,,,,,,,,,,,,,,,,,,,,,,,,,,,,,,,,,,,,,,,,,,,,,,,,,,,,,,,,,,,,,,,,,,,,,,,,,,,,,,,,,,,,,,champion,saddlebrown,1.084,175.2501,176.4492,,[0.0307617982228597],[-0.23835182189941406],[1],[0],[0],[0.5153999999761538],"[""trial_opt2_shape""]",0,109,109,109,1,emotional,179,Neutx4_Pos,positive,0,NeutPosNoSwitch,,,,,,,,,,,,,,,
,,,,,,,,,,,,,,,,test3,2,2020-01-01_00h00.00.000,stroop_artemis_2025.2.3,2025.2.4,Linux armv81,59.88023952,,,,,,,,,,,,,,,,,,,,,,,,,,,,,,,,,,,,,,,,,,,,,,,,,,,,,,,,,,,,,,,,,,,,,,,,,,,,,,,,,,,,,,,,,,,,,,,,,,,,,,,,,,molecule,blue,1.134,176.4502,177.6991,,[-0.3203125],[-0.20502662658691406],[1],[0],[0],[0.5151999999880559],"[""trial_opt1_shape""]",0,110,110,110,1,emotional,180,Neutx2_Pos,neutral,1,,,,,,,,,,,,,,,,
,,,,,,,,,,,,,,,,test3,2,2020-01-01_00h00.00.000,stroop_artemis_2025.2.3,2025.2.4,Linux armv81,59.88023952,,,,,,,,,,,,,,,,,,,,,,,,,,,,,,,,,,,,,,,,,,,,,,,,,,,,,,,,,,,,,,,,,,,,,,,,,,,,,,,,,,,,,,,,,,,,,,,,,,,,,,,,,,gigantic,blue,1.117,177.7,178.9242,,[-0.3134765625],[-0.21825091044108072],[1],[0],[0],[0.3989000000357805],"[""trial_opt1_shape""]",0,111,111,111,1,emotional,180,Neutx2_Pos,neutral,0,,,,,,,,,,,,,,,,
,,,,,,,,,,,,,,,,test3,2,2020-01-01_00h00.00.000,stroop_artemis_2025.2.3,2025.2.4,Linux armv81,59.88023952,,,,,,,,,,,,,,,,,,,,,,,,,,,,,,,,,,,,,,,,,,,,,,,,,,,,,,,,,,,,,,,,,,,,,,,,,,,,,,,,,,,,,,,,,,,,,,,,,,,,,,,,,,sunshine,saddlebrown,1.05,178.9249,180.0909,,[0.0429688294728597],[-0.27643775939941406],[1],[0],[0],[0.4490000000000123],"[""trial_opt2_shape""]",0,112,112,112,1,emotional,180,Neutx2_Pos,positive,1,NeutPosSwitch,,,,,,,,,,,,,,,
,,,,,,,,,,,,,,,,test3,2,2020-01-01_00h00.00.000,stroop_artemis_2025.2.3,2025.2.4,Linux armv81,59.88023952,,,,,,,,,,,,,,,,,,,,,,,,,,,,,,,,,,,,,,,,,,,,,,,,,,,,,,,,,,,,,,,,,,,,,,,,,,,,,,,,,,,,,,,,,,,,,,,,,,,,,,,,,,despair,hotpink,1.017,180.0917,181.2159,,[0.2805177370707194],[-0.2219537099202474],[1],[0],[0],[0.6320999999642254],"[""trial_opt3_shape""]",0,113,113,113,1,emotional,181,Negx3,negative,1,,,,,,,,,,,,,,,,
,,,,,,,,,,,,,,,,test3,2,2020-01-01_00h00.00.000,stroop_artemis_2025.2.3,2025.2.4,Linux armv81,59.88023952,,,,,,,,,,,,,,,,,,,,,,,,,,,,,,,,,,,,,,,,,,,,,,,,,,,,,,,,,,,,,,,,,,,,,,,,,,,,,,,,,,,,,,,,,,,,,,,,,,,,,,,,,,sad,hotpink,1.067,181.2169,182.399,,[0.26171875],[-0.20714251200358072],[1],[0],[0],[0.6818999999761672],"[""trial_opt3_shape""]",0,114,114,114,1,emotional,181,Negx3,negative,0,,,,,,,,,,,,,,,,
,,,,,,,,,,,,,,,,test3,2,2020-01-01_00h00.00.000,stroop_artemis_2025.2.3,2025.2.4,Linux armv81,59.88023952,,,,,,,,,,,,,,,,,,,,,,,,,,,,,,,,,,,,,,,,,,,,,,,,,,,,,,,,,,,,,,,,,,,,,,,,,,,,,,,,,,,,,,,,,,,,,,,,,,,,,,,,,,idiot,hotpink,1.184,182.3998,183.6992,,[0.256591796875],[-0.16376686096191406],[1],[0],[0],[0.5488000000119087],"[""trial_opt3_shape""]",0,115,115,115,1,emotional,181,Negx3,negative,0,NegNoSwitch,,,,,,,,,,,,,,,
,,,,,,,,,,,,,,,,test3,2,2020-01-01_00h00.00.000,stroop_artemis_2025.2.3,2025.2.4,Linux armv81,59.88023952,,,,,,,,,,,,,,,,,,,,,,,,,,,,,,,,,,,,,,,,,,,,,,,,,,,,,,,,,,,,,,,,,,,,,,,,,,,,,,,,,,,,,,,,,,,,,,,,,,,,,,,,,,guess,blue,1.15,183.7,184.9657,,[-0.31298828125],[-0.25792376200358075],[1],[0],[0],[0.6821000000238371],"[""trial_opt1_shape""]",0,116,116,116,1,emotional,182,Neutx3_Neg,neutral,1,,,,,,,,,,,,,,,,
,,,,,,,,,,,,,,,,test3,2,2020-01-01_00h00.00.000,stroop_artemis_2025.2.3,2025.2.4,Linux armv81,59.88023952,,,,,,,,,,,,,,,,,,,,,,,,,,,,,,,,,,,,,,,,,,,,,,,,,,,,,,,,,,,,,,,,,,,,,,,,,,,,,,,,,,,,,,,,,,,,,,,,,,,,,,,,,,fridge,blue,1.167,184.9665,186.2493,,[-0.29760738213857013],[-0.25104713439941406],[1],[0],[0],[0.5491000000238557],"[""trial_opt1_shape""]",0,117,117,117,1,emotional,182,Neutx3_Neg,neutral,0,,,,,,,,,,,,,,,,
,,,,,,,,,,,,,,,,test3,2,2020-01-01_00h00.00.000,stroop_artemis_2025.2.3,2025.2.4,Linux armv81,59.88023952,,,,,,,,,,,,,,,,,,,,,,,,,,,,,,,,,,,,,,,,,,,,,,,,,,,,,,,,,,,,,,,,,,,,,,,,,,,,,,,,,,,,,,,,,,,,,,,,,,,,,,,,,,mad,blue,1.034,186.2503,187.3908,,[-0.325927734375],[-0.22935930887858072],[1],[0],[0],[0.5818999999761445],"[""trial_opt1_shape""]",0,118,118,118,1,emotional,182,Neutx3_Neg,negative,0,NeutNegNoSwitch,,,,,,,,,,,,,,,
,,,,,,,,,,,,,,,,test3,2,2020-01-01_00h00.00.000,stroop_artemis_2025.2.3,2025.2.4,Linux armv81,59.88023952,,,,,,,,,,,,,,,,,,,,,,,,,,,,,,,,,,,,,,,,,,,,,,,,,,,,,,,,,,,,,,,,,,,,,,,,,,,,,,,,,,,,,,,,,,,,,,,,,,,,,,,,,,tab,hotpink,1.017,187.3916,188.5158,,[0.240478515625],[-0.18016497294108072],[1],[0],[0],[0.6156000000238464],"[""trial_opt3_shape""]",0,119,119,119,1,emotional,183,Neutx5_Neg,neutral,1,,,,,,,,,,,,,,,,
,,,,,,,,,,,,,,,,test3,2,2020-01-01_00h00.00.000,stroop_artemis_2025.2.3,2025.2.4,Linux armv81,59.88023952,,,,,,,,,,,,,,,,,,,,,,,,,,,,,,,,,,,,,,,,,,,,,,,,,,,,,,,,,,,,,,,,,,,,,,,,,,,,,,,,,,,,,,,,,,,,,,,,,,,,,,,,,,invite,hotpink,1.134,188.5166,189.7575,,[0.249267578125],[-0.15160051981608072],[1],[0],[0],[0.5823000000119407],"[""trial_opt3_shape""]",0,120,120,120,1,emotional,183,Neutx5_Neg,neutral,0,,,,,,,,,,,,,,,,
,,,,,,,,,,,,,,,,test3,2,2020-01-01_00h00.00.000,stroop_artemis_2025.2.3,2025.2.4,Linux armv81,59.88023952,,,,,,,,,,,,,,,,,,,,,,,,,,,,,,,,,,,,,,,,,,,,,,,,,,,,,,,,,,,,,,,,,,,,,,,,,,,,,,,,,,,,,,,,,,,,,,,,,,,,,,,,,,cancer,hotpink,1.084,189.7583,190.9575,,[0.255615234375],[-0.2092583974202474],[1],[0],[0],[0.4988000000118973],"[""trial_opt3_shape""]",0,121,121,121,1,emotional,183,Neutx5_Neg,negative,0,NeutNegNoSwitch,,,,,,,,,,,,,,,
,,,,,,,,,,,,,,,,test3,2,2020-01-01_00h00.00.000,stroop_artemis_2025.2.3,2025.2.4,Linux armv81,59.88023952,,,,,,,,,,,,,,,,,,,,,,,,,,,,,,,,,,,,,,,,,,,,,,,,,,,,,,,,,,,,,,,,,,,,,,,,,,,,,,,,,,,,,,,,,,,,,,,,,,,,,,,,,,devour,saddlebrown,1.15,190.9582,192.2243,,[0.012207110722859701],[-0.23517799377441406],[1],[0],[0],[0.582299999952312],"[""trial_opt2_shape""]",0,122,122,122,1,emotional,184,Neutx2_Neg,neutral,1,,,,,,,,,,,,,,,,
,,,,,,,,,,,,,,,,test3,2,2020-01-01_00h00.00.000,stroop_artemis_2025.2.3,2025.2.4,Linux armv81,59.88023952,,,,,,,,,,,,,,,,,,,,,,,,,,,,,,,,,,,,,,,,,,,,,,,,,,,,,,,,,,,,,,,,,,,,,,,,,,,,,,,,,,,,,,,,,,,,,,,,,,,,,,,,,,row,saddlebrown,1.1,192.2252,193.4411,,[0.0339356263478597],[-0.25422096252441406],[1],[0],[0],[0.4486000000238448],"[""trial_opt2_shape""]",0,123,123,123,1,emotional,184,Neutx2_Neg,neutral,0,,,,,,,,,,,,,,,,
,,,,,,,,,,,,,,,,test3,2,2020-01-01_00h00.00.000,stroop_artemis_2025.2.3,2025.2.4,Linux armv81,59.88023952,,,,,,,,,,,,,,,,,,,,,,,,,,,,,,,,,,,,,,,,,,,,,,,,,,,,,,,,,,,,,,,,,,,,,,,,,,,,,,,,,,,,,,,,,,,,,,,,,,,,,,,,,,death,saddlebrown,1.184,193.4418,194.7409,,[0.0502930482228597],[-0.2330621083577474],[1],[0],[0],[0.4153000000119391],"[""trial_opt2_shape""]",0,124,124,124,1,emotional,184,Neutx2_Neg,negative,0,NeutNegNoSwitch,,,,,,,,,,,,,,,
,,,,,,,,,,,,,,,,test3,2,2020-01-01_00h00.00.000,stroop_artemis_2025.2.3,2025.2.4,Linux armv81,59.88023952,,,,,,,,,,,,,,,,,,,,,,,,,,,,,,,,,,,,,,,,,,,,,,,,,,,,,,,,,,,,,,,,,,,,,,,,,,,,,,,,,,,,,,,,,,,,,,,,,,,,,,,,,,dumb,saddlebrown,1.2,194.7415,196.0574,,[0.0471192200978597],[-0.22618548075358072],[1],[0],[0],[0.4656000000238407],"[""trial_opt2_shape""]",0,125,125,125,1,emotional,185,Negx3,negative,0,,,,,,,,,,,,,,,,
,,,,,,,,,,,,,,,,test3,2,2020-01-01_00h00.00.000,stroop_artemis_2025.2.3,2025.2.4,Linux armv81,59.88023952,,,,,,,,,,,,,,,,,,,,,,,,,,,,,,,,,,,,,,,,,,,,,,,,,,,,,,,,,,,,,,,,,,,,,,,,,,,,,,,,,,,,,,,,,,,,,,,,,,,,,,,,,,insult,blue,1.05,196.0583,197.2159,,[-0.29882808526357013],[-0.2060845692952474],[1],[0],[0],[0.515500000000003],"[""trial_opt1_shape""]",0,126,126,126,1,emotional,185,Negx3,negative,1,NegSwitch,,,,,,,,,,,,,,,
,,,,,,,,,,,,,,,,test3,2,2020-01-01_00h00.00.000,stroop_artemis_2025.2.3,2025.2.4,Linux armv81,59.88023952,,,,,,,,,,,,,,,,,,,,,,,,,,,,,,,,,,,,,,,,,,,,,,,,,,,,,,,,,,,,,,,,,,,,,,,,,,,,,,,,,,,,,,,,,,,,,,,,,,,,,,,,,,dignified,saddlebrown,1.067,197.2169,198.3991,,[0.0361328919728597],[-0.2330621083577474],[1],[0],[0],[0.6651000000238412],"[""trial_opt2_shape""]",0,127,127,127,1,emotional,186,Posx2,positive,1,,,,,,,,,,,,,,,,
,,,,,,,,,,,,,,,,test3,2,2020-01-01_00h00.00.000,stroop_artemis_2025.2.3,2025.2.4,Linux armv81,59.88023952,,,,,,,,,,,,,,,,,,,,,,,,,,,,,,,,,,,,,,,,,,,,,,,,,,,,,,,,,,,,,,,,,,,,,,,,,,,,,,,,,,,,,,,,,,,,,,,,,,,,,,,,,,free,hotpink,1.117,198.4001,199.6242,,[0.2673341433207194],[-0.22883033752441406],[1],[0],[0],[0.5985000000000014],"[""trial_opt3_shape""]",0,128,128,128,1,emotional,186,Posx2,positive,1,PosSwitch,,,,,,,,,,,,,,,
,,,,,,,,,,,,,,,,test3,2,2020-01-01_00h00.00.000,stroop_artemis_2025.2.3,2025.2.4,Linux armv81,59.88023952,,,,,,,,,,,,,,,,,,,,,,,,,,,,,,,,,,,,,,,,,,,,,,,,,,,,,,,,,,,,,,,,,,,,,,,,,,,,,,,,,,,,,,,,,,,,,,,,,,,,,,,,,,sharp,saddlebrown,1,199.625,200.7408,,[0.0214844544728597],[-0.25580787658691406],[1],[0],[0],[0.6986999999880652],"[""trial_opt2_shape""]",0,129,129,129,1,emotional,187,Neutx4_Pos,neutral,1,,,,,,,,,,,,,,,,
,,,,,,,,,,,,,,,,test3,2,2020-01-01_00h00.00.000,stroop_artemis_2025.2.3,2025.2.4,Linux armv81,59.88023952,,,,,,,,,,,,,,,,,,,,,,,,,,,,,,,,,,,,,,,,,,,,,,,,,,,,,,,,,,,,,,,,,,,,,,,,,,,,,,,,,,,,,,,,,,,,,,,,,,,,,,,,,,pointy,saddlebrown,1,200.7416,201.8577,,[0.0505371888478597],[-0.25263404846191406],[1],[0],[0],[0.5491000000238273],"[""trial_opt2_shape""]",0,130,130,130,1,emotional,187,Neutx4_Pos,neutral,0,,,,,,,,,,,,,,,,
,,,,,,,,,,,,,,,,test3,2,2020-01-01_00h00.00.000,stroop_artemis_2025.2.3,2025.2.4,Linux armv81,59.88023952,,,,,,,,,,,,,,,,,,,,,,,,,,,,,,,,,,,,,,,,,,,,,,,,,,,,,,,,,,,,,,,,,,,,,,,,,,,,,,,,,,,,,,,,,,,,,,,,,,,,,,,,,,hero,blue,1.1,201.8587,203.0658,,[-0.3872070113817851],[-0.26056861877441406],[1],[0],[0],[0.5483000000119205],[null],0,131,131,131,1,emotional,187,Neutx4_Pos,positive,1,NeutPosSwitch,,,,,,,,,,,,,,,
,,,,,,,,,,,,,,,,test3,2,2020-01-01_00h00.00.000,stroop_artemis_2025.2.3,2025.2.4,Linux armv81,59.88023952,,,,,,,,,,,,,,,,,,,,,,,,,,,,,,,,,,,,,,,,,,,,,,,,,,,,,,,,,,,,,,,,,,,,,,,,,,,,,,,,,,,,,,,,,,,,,,,,,,,,,,,,,,wealth,blue,1.184,203.0665,204.3658,,[-0.28857417901357013],[-0.2076714833577474],[1],[0],[0],[0.5655999999642347],"[""trial_opt1_shape""]",0,132,132,132,1,emotional,188,Posx4,positive,0,,,,,,,,,,,,,,,,
,,,,,,,,,,,,,,,,test3,2,2020-01-01_00h00.00.000,stroop_artemis_2025.2.3,2025.2.4,Linux armv81,59.88023952,,,,,,,,,,,,,,,,,,,,,,,,,,,,,,,,,,,,,,,,,,,,,,,,,,,,,,,,,,,,,,,,,,,,,,,,,,,,,,,,,,,,,,,,,,,,,,,,,,,,,,,,,,trust,hotpink,1.05,204.3667,205.5325,,[0.249267578125],[-0.2314751942952474],[1],[0],[0],[0.5321000000238314],"[""trial_opt3_shape""]",0,133,133,133,1,emotional,188,Posx4,positive,1,PosSwitch,,,,,,,,,,,,,,,
,,,,,,,,,,,,,,,,test3,2,2020-01-01_00h00.00.000,stroop_artemis_2025.2.3,2025.2.4,Linux armv81,59.88023952,,,,,,,,,,,,,,,,,,,,,,,,,,,,,,,,,,,,,,,,,,,,,,,,,,,,,,,,,,,,,,,,,,,,,,,,,,,,,,,,,,,,,,,,,,,,,,,,,,,,,,,,,,,,,,,,,,,,,,,,,,,,,,,,,,205.5327,220.5333,220.5333,221.7331,0,0,0,3,1,emotional,conditions_emotional2.xlsx,"slice(367,501)","""367:501""",,
,,,,,,,,,,,,,,,,test3,2,2020-01-01_00h00.00.000,stroop_artemis_2025.2.3,2025.2.4,Linux armv81,59.88023952,,,,,,,,,,,,,,,,,,,,,,,,,,,,,,,,,,,,,,,,,,,,,,,,,,,,,,,,,,,,,,,,,,,,,,,,,,,,,,,,,,,,,,,,,,,,,,,,,,,,,,,,,,XXX,blue,1.034,221.7507,222.8997,,[-0.24218746026357016],[-0.20872942606608072],[1],[0],[0],[0.7980999999642506],"[""trial_opt1_shape""]",0,0,0,0,1,classic,44,NI,neutral,,,,,,,,,,,,,,,,,
,,,,,,,,,,,,,,,,test3,2,2020-01-01_00h00.00.000,stroop_artemis_2025.2.3,2025.2.4,Linux armv81,59.88023952,,,,,,,,,,,,,,,,,,,,,,,,,,,,,,,,,,,,,,,,,,,,,,,,,,,,,,,,,,,,,,,,,,,,,,,,,,,,,,,,,,,,,,,,,,,,,,,,,,,,,,,,,,BROWN,hotpink,1.017,222.9013,224.0332,,[0.2509765625],[-0.24998919169108072],[1],[0],[0],[0.5806999999880702],"[""trial_opt3_shape""]",0,1,1,1,1,classic,44,NI,incongruent,,,,,,,,,,,,,,,,,
,,,,,,,,,,,,,,,,test3,2,2020-01-01_00h00.00.000,stroop_artemis_2025.2.3,2025.2.4,Linux armv81,59.88023952,,,,,,,,,,,,,,,,,,,,,,,,,,,,,,,,,,,,,,,,,,,,,,,,,,,,,,,,,,,,,,,,,,,,,,,,,,,,,,,,,,,,,,,,,,,,,,,,,,,,,,,,,,BLUE,blue,1.117,224.0349,225.2659,,[-0.30346675713857013],[-0.23835182189941406],[1],[0],[0],[0.4970999999642345],"[""trial_opt1_shape""]",0,2,2,2,1,classic,45,C6I,congruent,,,,,,,,,,,,,,,,,
,,,,,,,,,,,,,,,,test3,2,2020-01-01_00h00.00.000,stroop_artemis_2025.2.3,2025.2.4,Linux armv81,59.88023952,,,,,,,,,,,,,,,,,,,,,,,,,,,,,,,,,,,,,,,,,,,,,,,,,,,,,,,,,,,,,,,,,,,,,,,,,,,,,,,,,,,,,,,,,,,,,,,,,,,,,,,,,,BROWN,saddlebrown,1.067,225.2667,226.45,,[0.0468750794728597],[-0.20661354064941406],[1],[0],[0],[0.6155999999642177],"[""trial_opt2_shape""]",0,3,3,3,1,classic,45,C6I,congruent,,,,,,,,,,,,,,,,,
,,,,,,,,,,,,,,,,test3,2,2020-01-01_00h00.00.000,stroop_artemis_2025.2.3,2025.2.4,Linux armv81,59.88023952,,,,,,,,,,,,,,,,,,,,,,,,,,,,,,,,,,,,,,,,,,,,,,,,,,,,,,,,,,,,,,,,,,,,,,,,,,,,,,,,,,,,,,,,,,,,,,,,,,,,,,,,,,PINK,hotpink,1.167,226.4517,227.7247,,[0.24853515625],[-0.17064348856608072],[1],[0],[0],[0.5303999999761402],"[""trial_opt3_shape""]",0,4,4,4,1,classic,45,C6I,congruent,,,,,,,,,,,,,,,,,
,,,,,,,,,,,,,,,,test3,2,2020-01-01_00h00.00.000,stroop_artemis_2025.2.3,2025.2.4,Linux armv81,59.88023952,,,,,,,,,,,,,,,,,,,,,,,,,,,,,,,,,,,,,,,,,,,,,,,,,,,,,,,,,,,,,,,,,,,,,,,,,,,,,,,,,,,,,,,,,,,,,,,,,,,,,,,,,,BLUE,blue,1.2,227.7264,229.0418,,[-0.28710933526357013],[-0.26691627502441406],[1],[0],[0],[0.6305999999642324],"[""trial_opt1_shape""]",0,5,5,5,1,classic,45,C6I,congruent,,,,,,,,,,,,,,,,,
,,,,,,,,,,,,,,,,test3,2,2020-01-01_00h00.00.000,stroop_artemis_2025.2.3,2025.2.4,Linux armv81,59.88023952,,,,,,,,,,,,,,,,,,,,,,,,,,,,,,,,,,,,,,,,,,,,,,,,,,,,,,,,,,,,,,,,,,,,,,,,,,,,,,,,,,,,,,,,,,,,,,,,,,,,,,,,,,PINK,hotpink,1.134,229.0435,230.2913,,[0.2216796875],[-0.1426080067952474],[1],[0],[0],[0.5136999999880913],"[""trial_opt3_shape""]",0,6,6,6,1,classic,45,C6I,congruent,,,,,,,,,,,,,,,,,
,,,,,,,,,,,,,,,,test3,2,2020-01-01_00h00.00.000,stroop_artemis_2025.2.3,2025.2.4,Linux armv81,59.88023952,,,,,,,,,,,,,,,,,,,,,,,,,,,,,,,,,,,,,,,,,,,,,,,,,,,,,,,,,,,,,,,,,,,,,,,,,,,,,,,,,,,,,,,,,,,,,,,,,,,,,,,,,,BROWN,saddlebrown,1.084,230.2928,231.4832,,[0.0061035950978597],[-0.2743218739827474],[1],[0],[0],[0.6477999999523263],"[""trial_opt2_shape""]",0,7,7,7,1,classic,45,C6I,congruent,,,,,,,,,,,,,,,,,
,,,,,,,,,,,,,,,,test3,2,2020-01-01_00h00.00.000,stroop_artemis_2025.2.3,2025.2.4,Linux armv81,59.88023952,,,,,,,,,,,,,,,,,,,,,,,,,,,,,,,,,,,,,,,,,,,,,,,,,,,,,,,,,,,,,,,,,,,,,,,,,,,,,,,,,,,,,,,,,,,,,,,,,,,,,,,,,,BLUE,saddlebrown,1.15,231.4848,232.7504,,[0.0349121888478597],[-0.27643775939941406],[1],[0],[0],[0.4303999999761743],"[""trial_opt2_shape""]",0,8,8,8,1,classic,45,C6I,incongruent,,,,,,,,,,,,,,,,,
,,,,,,,,,,,,,,,,test3,2,2020-01-01_00h00.00.000,stroop_artemis_2025.2.3,2025.2.4,Linux armv81,59.88023952,,,,,,,,,,,,,,,,,,,,,,,,,,,,,,,,,,,,,,,,,,,,,,,,,,,,,,,,,,,,,,,,,,,,,,,,,,,,,,,,,,,,,,,,,,,,,,,,,,,,,,,,,,XXXX,hotpink,1,232.7522,233.8583,,[0.2880860964457194],[-0.2171929677327474],[1],[0],[0],[0.5465999999642293],"[""trial_opt3_shape""]",0,9,9,9,1,classic,46,N3I,neutral,,,,,,,,,,,,,,,,,
,,,,,,,,,,,,,,,,test3,2,2020-01-01_00h00.00.000,stroop_artemis_2025.2.3,2025.2.4,Linux armv81,59.88023952,,,,,,,,,,,,,,,,,,,,,,,,,,,,,,,,,,,,,,,,,,,,,,,,,,,,,,,,,,,,,,,,,,,,,,,,,,,,,,,,,,,,,,,,,,,,,,,,,,,,,,,,,,XXXXX,saddlebrown,1.15,233.8601,235.1248,,[0.0451660950978597],[-0.2822564442952474],[1],[0],[0],[0.6803999999761459],"[""trial_opt2_shape""]",0,10,10,10,1,classic,46,N3I,neutral,,,,,,,,,,,,,,,,,
,,,,,,,,,,,,,,,,test3,2,2020-01-01_00h00.00.000,stroop_artemis_2025.2.3,2025.2.4,Linux armv81,59.88023952,,,,,,,,,,,,,,,,,,,,,,,,,,,,,,,,,,,,,,,,,,,,,,,,,,,,,,,,,,,,,,,,,,,,,,,,,,,,,,,,,,,,,,,,,,,,,,,,,,,,,,,,,,XXX,blue,1.1,235.1265,236.3413,,[-0.29589839776357013],[-0.22883033752441406],[1],[0],[0],[0.41450000000000387],"[""trial_opt1_shape""]",0,11,11,11,1,classic,46,N3I,neutral,,,,,,,,,,,,,,,,,
,,,,,,,,,,,,,,,,test3,2,2020-01-01_00h00.00.000,stroop_artemis_2025.2.3,2025.2.4,Linux armv81,59.88023952,,,,,,,,,,,,,,,,,,,,,,,,,,,,,,,,,,,,,,,,,,,,,,,,,,,,,,,,,,,,,,,,,,,,,,,,,,,,,,,,,,,,,,,,,,,,,,,,,,,,,,,,,,PINK,blue,1.067,236.343,237.5251,,[-0.30371089776357013],[-0.2203667958577474],[1],[0],[0],[0.5975999999642454],"[""trial_opt1_shape""]",0,12,12,12,1,classic,46,N3I,incongruent,,,,,,,,,,,,,,,,,
,,,,,,,,,,,,,,,,test3,2,2020-01-01_00h00.00.000,stroop_artemis_2025.2.3,2025.2.4,Linux armv81,59.88023952,,,,,,,,,,,,,,,,,,,,,,,,,,,,,,,,,,,,,,,,,,,,,,,,,,,,,,,,,,,,,,,,,,,,,,,,,,,,,,,,,,,,,,,,,,,,,,,,,,,,,,,,,,BROWN,saddlebrown,1.084,237.5268,238.7242,,[0.0319825013478597],[-0.2616265614827474],[1],[0],[0],[0.5801000000238332],"[""trial_opt2_shape""]",0,13,13,13,1,classic,47,C3I,congruent,,,,,,,,,,,,,,,,,
,,,,,,,,,,,,,,,,test3,2,2020-01-01_00h00.00.000,stroop_artemis_2025.2.3,2025.2.4,Linux armv81,59.88023952,,,,,,,,,,,,,,,,,,,,,,,,,,,,,,,,,,,,,,,,,,,,,,,,,,,,,,,,,,,,,,,,,,,,,,,,,,,,,,,,,,,,,,,,,,,,,,,,,,,,,,,,,,BLUE,blue,1.184,238.725,240.0254,,[-0.29443355401357013],[-0.2394097646077474],[1],[0],[0],[0.5825000000000102],"[""trial_opt1_shape""]",0,14,14,14,1,classic,47,C3I,congruent,,,,,,,,,,,,,,,,,
,,,,,,,,,,,,,,,,test3,2,2020-01-01_00h00.00.000,stroop_artemis_2025.2.3,2025.2.4,Linux armv81,59.88023952,,,,,,,,,,,,,,,,,,,,,,,,,,,,,,,,,,,,,,,,,,,,,,,,,,,,,,,,,,,,,,,,,,,,,,,,,,,,,,,,,,,,,,,,,,,,,,,,,,,,,,,,,,PINK,hotpink,1.2,240.0274,241.3411,,[0.24853515625],[-0.22142473856608072],[1],[0],[0],[0.5128000000119357],"[""trial_opt3_shape""]",0,15,15,15,1,classic,47,C3I,congruent,,,,,,,,,,,,,,,,,
,,,,,,,,,,,,,,,,test3,2,2020-01-01_00h00.00.000,stroop_artemis_2025.2.3,2025.2.4,Linux armv81,59.88023952,,,,,,,,,,,,,,,,,,,,,,,,,,,,,,,,,,,,,,,,,,,,,,,,,,,,,,,,,,,,,,,,,,,,,,,,,,,,,,,,,,,,,,,,,,,,,,,,,,,,,,,,,,BLUE,hotpink,1.117,241.343,242.575,,[0.249755859375],[-0.24998919169108072],[1],[0],[0],[0.36419999998807384],"[""trial_opt3_shape""]",0,16,16,16,1,classic,47,C3I,incongruent,,,,,,,,,,,,,,,,,
,,,,,,,,,,,,,,,,test3,2,2020-01-01_00h00.00.000,stroop_artemis_2025.2.3,2025.2.4,Linux armv81,59.88023952,,,,,,,,,,,,,,,,,,,,,,,,,,,,,,,,,,,,,,,,,,,,,,,,,,,,,,,,,,,,,,,,,,,,,,,,,,,,,,,,,,,,,,,,,,,,,,,,,,,,,,,,,,BLUE,blue,1.034,242.576,243.7166,,[-0.25805660088857013],[-0.21296119689941406],[1],[0],[0],[0.8483000000119318],"[""trial_opt1_shape""]",0,17,17,17,1,classic,48,C7I,congruent,,,,,,,,,,,,,,,,,
,,,,,,,,,,,,,,,,test3,2,2020-01-01_00h00.00.000,stroop_artemis_2025.2.3,2025.2.4,Linux armv81,59.88023952,,,,,,,,,,,,,,,,,,,,,,,,,,,,,,,,,,,,,,,,,,,,,,,,,,,,,,,,,,,,,,,,,,,,,,,,,,,,,,,,,,,,,,,,,,,,,,,,,,,,,,,,,,BROWN,saddlebrown,1.167,243.7182,244.9997,,[0.0224610169728597],[-0.25951067606608075],[1],[0],[0],[0.5476999999880832],"[""trial_opt2_shape""]",0,18,18,18,1,classic,48,C7I,congruent,,,,,,,,,,,,,,,,,
,,,,,,,,,,,,,,,,test3,2,2020-01-01_00h00.00.000,stroop_artemis_2025.2.3,2025.2.4,Linux armv81,59.88023952,,,,,,,,,,,,,,,,,,,,,,,,,,,,,,,,,,,,,,,,,,,,,,,,,,,,,,,,,,,,,,,,,,,,,,,,,,,,,,,,,,,,,,,,,,,,,,,,,,,,,,,,,,PINK,hotpink,1.05,245.0014,246.1584,,[0.2294921875],[-0.21507708231608072],[1],[0],[0],[0.5636999999880743],"[""trial_opt3_shape""]",0,19,19,19,1,classic,48,C7I,congruent,,,,,,,,,,,,,,,,,
,,,,,,,,,,,,,,,,test3,2,2020-01-01_00h00.00.000,stroop_artemis_2025.2.3,2025.2.4,Linux armv81,59.88023952,,,,,,,,,,,,,,,,,,,,,,,,,,,,,,,,,,,,,,,,,,,,,,,,,,,,,,,,,,,,,,,,,,,,,,,,,,,,,,,,,,,,,,,,,,,,,,,,,,,,,,,,,,BROWN,saddlebrown,1.017,246.1601,247.2913,,[0.0278321107228597],[-0.2965386708577474],[1],[0],[0],[0.5636999999880743],"[""trial_opt2_shape""]",0,20,20,20,1,classic,48,C7I,congruent,,,,,,,,,,,,,,,,,
,,,,,,,,,,,,,,,,test3,2,2020-01-01_00h00.00.000,stroop_artemis_2025.2.3,2025.2.4,Linux armv81,59.88023952,,,,,,,,,,,,,,,,,,,,,,,,,,,,,,,,,,,,,,,,,,,,,,,,,,,,,,,,,,,,,,,,,,,,,,,,,,,,,,,,,,,,,,,,,,,,,,,,,,,,,,,,,,PINK,hotpink,1.134,247.293,248.5417,,[0.2668458620707194],[-0.2362359364827474],[1],[0],[0],[0.5816000000237977],"[""trial_opt3_shape""]",0,21,21,21,1,classic,48,C7I,congruent,,,,,,,,,,,,,,,,,
,,,,,,,,,,,,,,,,test3,2,2020-01-01_00h00.00.000,stroop_artemis_2025.2.3,2025.2.4,Linux armv81,59.88023952,,,,,,,,,,,,,,,,,,,,,,,,,,,,,,,,,,,,,,,,,,,,,,,,,,,,,,,,,,,,,,,,,,,,,,,,,,,,,,,,,,,,,,,,,,,,,,,,,,,,,,,,,,BLUE,blue,1.15,248.5435,249.8083,,[-0.3447265426317851],[-0.2108453114827474],[1],[0],[0],[0.5639999999999645],"[""trial_opt1_shape""]",0,22,22,22,1,classic,48,C7I,congruent,,,,,,,,,,,,,,,,,
,,,,,,,,,,,,,,,,test3,2,2020-01-01_00h00.00.000,stroop_artemis_2025.2.3,2025.2.4,Linux armv81,59.88023952,,,,,,,,,,,,,,,,,,,,,,,,,,,,,,,,,,,,,,,,,,,,,,,,,,,,,,,,,,,,,,,,,,,,,,,,,,,,,,,,,,,,,,,,,,,,,,,,,,,,,,,,,,BROWN,saddlebrown,1.134,249.8102,251.0492,,[0.0207520325978597],[-0.2759087880452474],[1],[0],[0],[0.5803000000119027],"[""trial_opt2_shape""]",0,23,23,23,1,classic,48,C7I,congruent,,,,,,,,,,,,,,,,,
,,,,,,,,,,,,,,,,test3,2,2020-01-01_00h00.00.000,stroop_artemis_2025.2.3,2025.2.4,Linux armv81,59.88023952,,,,,,,,,,,,,,,,,,,,,,,,,,,,,,,,,,,,,,,,,,,,,,,,,,,,,,,,,,,,,,,,,,,,,,,,,,,,,,,,,,,,,,,,,,,,,,,,,,,,,,,,,,PINK,saddlebrown,1.017,251.05,252.1746,,[0.0429688294728597],[-0.2441705067952474],[1],[0],[0],[0.49960000002386096],"[""trial_opt2_shape""]",0,24,24,24,1,classic,48,C7I,incongruent,,,,,,,,,,,,,,,,,
,,,,,,,,,,,,,,,,test3,2,2020-01-01_00h00.00.000,stroop_artemis_2025.2.3,2025.2.4,Linux armv81,59.88023952,,,,,,,,,,,,,,,,,,,,,,,,,,,,,,,,,,,,,,,,,,,,,,,,,,,,,,,,,,,,,,,,,,,,,,,,,,,,,,,,,,,,,,,,,,,,,,,,,,,,,,,,,,XXXXX,saddlebrown,1.184,252.1754,253.4748,,[0.0612793763478597],[-0.2441705067952474],[1],[0],[0],[0.4818000000119582],"[""trial_opt2_shape""]",0,25,25,25,1,classic,49,NI,neutral,,,,,,,,,,,,,,,,,
,,,,,,,,,,,,,,,,test3,2,2020-01-01_00h00.00.000,stroop_artemis_2025.2.3,2025.2.4,Linux armv81,59.88023952,,,,,,,,,,,,,,,,,,,,,,,,,,,,,,,,,,,,,,,,,,,,,,,,,,,,,,,,,,,,,,,,,,,,,,,,,,,,,,,,,,,,,,,,,,,,,,,,,,,,,,,,,,BROWN,blue,1.2,253.4764,254.7915,,[-0.25170894463857013],[-0.2092583974202474],[1],[0],[0],[0.6476999999881059],"[""trial_opt1_shape""]",0,26,26,26,1,classic,49,NI,incongruent,,,,,,,,,,,,,,,,,
,,,,,,,,,,,,,,,,test3,2,2020-01-01_00h00.00.000,stroop_artemis_2025.2.3,2025.2.4,Linux armv81,59.88023952,,,,,,,,,,,,,,,,,,,,,,,,,,,,,,,,,,,,,,,,,,,,,,,,,,,,,,,,,,,,,,,,,,,,,,,,,,,,,,,,,,,,,,,,,,,,,,,,,,,,,,,,,,PINK,hotpink,1.034,254.7933,255.9332,,[0.2714845339457194],[-0.19550514221191406],[1],[0],[0],[0.5469999999999686],"[""trial_opt3_shape""]",0,27,27,27,1,classic,50,C2I,congruent,,,,,,,,,,,,,,,,,
,,,,,,,,,,,,,,,,test3,2,2020-01-01_00h00.00.000,stroop_artemis_2025.2.3,2025.2.4,Linux armv81,59.88023952,,,,,,,,,,,,,,,,,,,,,,,,,,,,,,,,,,,,,,,,,,,,,,,,,,,,,,,,,,,,,,,,,,,,,,,,,,,,,,,,,,,,,,,,,,,,,,,,,,,,,,,,,,BLUE,blue,1.067,255.9346,257.1163,,[-0.28222652276357013],[-0.21296119689941406],[1],[0],[0],[0.41470000004773055],"[""trial_opt1_shape""]",0,28,28,28,1,classic,50,C2I,congruent,,,,,,,,,,,,,,,,,
,,,,,,,,,,,,,,,,test3,2,2020-01-01_00h00.00.000,stroop_artemis_2025.2.3,2025.2.4,Linux armv81,59.88023952,,,,,,,,,,,,,,,,,,,,,,,,,,,,,,,,,,,,,,,,,,,,,,,,,,,,,,,,,,,,,,,,,,,,,,,,,,,,,,,,,,,,,,,,,,,,,,,,,,,,,,,,,,BROWN,blue,1.117,257.1178,258.3413,,[-0.28784175713857013],[-0.21930885314941406],[1],[0],[0],[0.5147999999523449],"[""trial_opt1_shape""]",0,29,29,29,1,classic,50,C2I,incongruent,,,,,,,,,,,,,,,,,
,,,,,,,,,,,,,,,,test3,2,2020-01-01_00h00.00.000,stroop_artemis_2025.2.3,2025.2.4,Linux armv81,59.88023952,,,,,,,,,,,,,,,,,,,,,,,,,,,,,,,,,,,,,,,,,,,,,,,,,,,,,,,,,,,,,,,,,,,,,,,,,,,,,,,,,,,,,,,,,,,,,,,,,,,,,,,,,,BROWN,saddlebrown,1.1,258.3423,259.5583,,[0.0256348450978597],[-0.26585833231608075],[1],[0],[0],[0.4987000000476769],"[""trial_opt2_shape""]",0,30,30,30,1,classic,51,CI,congruent,,,,,,,,,,,,,,,,,
,,,,,,,,,,,,,,,,test3,2,2020-01-01_00h00.00.000,stroop_artemis_2025.2.3,2025.2.4,Linux armv81,59.88023952,,,,,,,,,,,,,,,,,,,,,,,,,,,,,,,,,,,,,,,,,,,,,,,,,,,,,,,,,,,,,,,,,,,,,,,,,,,,,,,,,,,,,,,,,,,,,,,,,,,,,,,,,,BLUE,saddlebrown,1,259.5598,260.6747,,[0.0490723450978597],[-0.26109759012858075],[1],[0],[0],[0.6469000000357141],"[""trial_opt2_shape""]",0,31,31,31,1,classic,51,CI,incongruent,,,,,,,,,,,,,,,,,
,,,,,,,,,,,,,,,,test3,2,2020-01-01_00h00.00.000,stroop_artemis_2025.2.3,2025.2.4,Linux armv81,59.88023952,,,,,,,,,,,,,,,,,,,,,,,,,,,,,,,,,,,,,,,,,,,,,,,,,,,,,,,,,,,,,,,,,,,,,,,,,,,,,,,,,,,,,,,,,,,,,,,,,,,,,,,,,,PINK,hotpink,1.084,260.6764,261.8749,,[-0.30395503838857013],[-0.24046770731608072],[1],[0],[0],[0.44700000000000273],"[""trial_opt1_shape""]",0,32,32,32,1,classic,52,C3I,congruent,,,,,,,,,,,,,,,,,
,,,,,,,,,,,,,,,,test3,2,2020-01-01_00h00.00.000,stroop_artemis_2025.2.3,2025.2.4,Linux armv81,59.88023952,,,,,,,,,,,,,,,,,,,,,,,,,,,,,,,,,,,,,,,,,,,,,,,,,,,,,,,,,,,,,,,,,,,,,,,,,,,,,,,,,,,,,,,,,,,,,,,,,,,,,,,,,,BLUE,blue,1.167,261.8765,263.149,,[-0.27099605401357013],[-0.2695611317952474],[1],[0],[0],[0.5640000000000214],"[""trial_opt1_shape""]",0,33,33,33,1,classic,52,C3I,congruent,,,,,,,,,,,,,,,,,
,,,,,,,,,,,,,,,,test3,2,2020-01-01_00h00.00.000,stroop_artemis_2025.2.3,2025.2.4,Linux armv81,59.88023952,,,,,,,,,,,,,,,,,,,,,,,,,,,,,,,,,,,,,,,,,,,,,,,,,,,,,,,,,,,,,,,,,,,,,,,,,,,,,,,,,,,,,,,,,,,,,,,,,,,,,,,,,,BROWN,saddlebrown,1.05,263.1499,264.3078,,[-0.0048827330271403],[-0.2330621083577474],[1],[0],[0],[0.6653999999761595],"[""trial_opt2_shape""]",0,34,34,34,1,classic,52,C3I,congruent,,,,,,,,,,,,,,,,,
,,,,,,,,,,,,,,,,test3,2,2020-01-01_00h00.00.000,stroop_artemis_2025.2.3,2025.2.4,Linux armv81,59.88023952,,,,,,,,,,,,,,,,,,,,,,,,,,,,,,,,,,,,,,,,,,,,,,,,,,,,,,,,,,,,,,,,,,,,,,,,,,,,,,,,,,,,,,,,,,,,,,,,,,,,,,,,,,PINK,blue,1.067,264.309,265.4911,,[-0.29199214776357013],[-0.2092583974202474],[1],[0],[0],[0.7646999999880677],"[""trial_opt1_shape""]",0,35,35,35,1,classic,52,C3I,incongruent,,,,,,,,,,,,,,,,,
,,,,,,,,,,,,,,,,test3,2,2020-01-01_00h00.00.000,stroop_artemis_2025.2.3,2025.2.4,Linux armv81,59.88023952,,,,,,,,,,,,,,,,,,,,,,,,,,,,,,,,,,,,,,,,,,,,,,,,,,,,,,,,,,,,,,,,,,,,,,,,,,,,,,,,,,,,,,,,,,,,,,,,,,,,,,,,,,BLUE,blue,1.167,265.4923,266.7665,,[-0.29223628838857013],[-0.23993873596191406],[1],[0],[0],[0.5314999999999941],"[""trial_opt1_shape""]",0,36,36,36,1,classic,53,C2I,congruent,,,,,,,,,,,,,,,,,
,,,,,,,,,,,,,,,,test3,2,2020-01-01_00h00.00.000,stroop_artemis_2025.2.3,2025.2.4,Linux armv81,59.88023952,,,,,,,,,,,,,,,,,,,,,,,,,,,,,,,,,,,,,,,,,,,,,,,,,,,,,,,,,,,,,,,,,,,,,,,,,,,,,,,,,,,,,,,,,,,,,,,,,,,,,,,,,,PINK,hotpink,1.034,266.7682,267.9167,,[0.2844239870707194],[-0.2060845692952474],[1],[0],[0],[0.58039999997618],"[""trial_opt3_shape""]",0,37,37,37,1,classic,53,C2I,congruent,,,,,,,,,,,,,,,,,
,,,,,,,,,,,,,,,,test3,2,2020-01-01_00h00.00.000,stroop_artemis_2025.2.3,2025.2.4,Linux armv81,59.88023952,,,,,,,,,,,,,,,,,,,,,,,,,,,,,,,,,,,,,,,,,,,,,,,,,,,,,,,,,,,,,,,,,,,,,,,,,,,,,,,,,,,,,,,,,,,,,,,,,,,,,,,,,,PINK,saddlebrown,1.017,267.9177,269.05,,[0.0400391419728597],[-0.26215553283691406],[1],[0],[0],[0.6645000000000323],"[""trial_opt2_shape""]",0,38,38,38,1,classic,53,C2I,incongruent,,,,,,,,,,,,,,,,,
,,,,,,,,,,,,,,,,test3,2,2020-01-01_00h00.00.000,stroop_artemis_2025.2.3,2025.2.4,Linux armv81,59.88023952,,,,,,,,,,,,,,,,,,,,,,,,,,,,,,,,,,,,,,,,,,,,,,,,,,,,,,,,,,,,,,,,,,,,,,,,,,,,,,,,,,,,,,,,,,,,,,,,,,,,,,,,,,BROWN,hotpink,1.134,269.0518,270.2912,,[0.2775880495707194],[-0.21137428283691406],[1],[0],[0],[0.896900000035771],"[""trial_opt3_shape""]",0,39,39,39,1,classic,54,I2,incongruent,,,,,,,,,,,,,,,,,
,,,,,,,,,,,,,,,,test3,2,2020-01-01_00h00.00.000,stroop_artemis_2025.2.3,2025.2.4,Linux armv81,59.88023952,,,,,,,,,,,,,,,,,,,,,,,,,,,,,,,,,,,,,,,,,,,,,,,,,,,,,,,,,,,,,,,,,,,,,,,,,,,,,,,,,,,,,,,,,,,,,,,,,,,,,,,,,,BROWN,saddlebrown,1.117,270.292,271.5163,,[0.0371094544728597],[-0.23835182189941406],[1],[0],[0],[0.6651000000238128],"[""trial_opt2_shape""]",0,40,40,40,1,classic,55,C4I,congruent,,,,,,,,,,,,,,,,,
,,,,,,,,,,,,,,,,test3,2,2020-01-01_00h00.00.000,stroop_artemis_2025.2.3,2025.2.4,Linux armv81,59.88023952,,,,,,,,,,,,,,,,,,,,,,,,,,,,,,,,,,,,,,,,,,,,,,,,,,,,,,,,,,,,,,,,,,,,,,,,,,,,,,,,,,,,,,,,,,,,,,,,,,,,,,,,,,BLUE,blue,1.184,271.518,272.8166,,[-0.31298828125],[-0.19233131408691406],[1],[0],[0],[0.480800000011925],"[""trial_opt1_shape""]",0,41,41,41,1,classic,55,C4I,congruent,,,,,,,,,,,,,,,,,
,,,,,,,,,,,,,,,,test3,2,2020-01-01_00h00.00.000,stroop_artemis_2025.2.3,2025.2.4,Linux armv81,59.88023952,,,,,,,,,,,,,,,,,,,,,,,,,,,,,,,,,,,,,,,,,,,,,,,,,,,,,,,,,,,,,,,,,,,,,,,,,,,,,,,,,,,,,,,,,,,,,,,,,,,,,,,,,,PINK,hotpink,1.15,272.8184,274.0835,,[0.258544921875],[-0.2330621083577474],[1],[0],[0],[0.64730000001191],"[""trial_opt3_shape""]",0,42,42,42,1,classic,55,C4I,congruent,,,,,,,,,,,,,,,,,
,,,,,,,,,,,,,,,,test3,2,2020-01-01_00h00.00.000,stroop_artemis_2025.2.3,2025.2.4,Linux armv81,59.88023952,,,,,,,,,,,,,,,,,,,,,,,,,,,,,,,,,,,,,,,,,,,,,,,,,,,,,,,,,,,,,,,,,,,,,,,,,,,,,,,,,,,,,,,,,,,,,,,,,,,,,,,,,,BLUE,blue,1,274.0852,275.1917,,[-0.315185546875],[-0.1949761708577474],[1],[0],[0],[0.6636999999880686],"[""trial_opt1_shape""]",0,43,43,43,1,classic,55,C4I,congruent,,,,,,,,,,,,,,,,,
,,,,,,,,,,,,,,,,test3,2,2020-01-01_00h00.00.000,stroop_artemis_2025.2.3,2025.2.4,Linux armv81,59.88023952,,,,,,,,,,,,,,,,,,,,,,,,,,,,,,,,,,,,,,,,,,,,,,,,,,,,,,,,,,,,,,,,,,,,,,,,,,,,,,,,,,,,,,,,,,,,,,,,,,,,,,,,,,BLUE,hotpink,1.2,275.1927,276.508,,[0.25830078125],[-0.19127337137858072],[1],[0],[0],[0.6326999999880627],"[""trial_opt3_shape""]",0,44,44,44,1,classic,55,C4I,incongruent,,,,,,,,,,,,,,,,,
,,,,,,,,,,,,,,,,test3,2,2020-01-01_00h00.00.000,stroop_artemis_2025.2.3,2025.2.4,Linux armv81,59.88023952,,,,,,,,,,,,,,,,,,,,,,,,,,,,,,,,,,,,,,,,,,,,,,,,,,,,,,,,,,,,,,,,,,,,,,,,,,,,,,,,,,,,,,,,,,,,,,,,,,,,,,,,,,PINK,hotpink,1.1,276.5097,277.7249,,[0.2822267214457194],[-0.2648003896077474],[1],[0],[0],[0.5308000000118795],"[""trial_opt3_shape""]",0,45,45,45,1,classic,56,C2I,congruent,,,,,,,,,,,,,,,,,
,,,,,,,,,,,,,,,,test3,2,2020-01-01_00h00.00.000,stroop_artemis_2025.2.3,2025.2.4,Linux armv81,59.88023952,,,,,,,,,,,,,,,,,,,,,,,,,,,,,,,,,,,,,,,,,,,,,,,,,,,,,,,,,,,,,,,,,,,,,,,,,,,,,,,,,,,,,,,,,,,,,,,,,,,,,,,,,,BROWN,saddlebrown,1.05,277.7267,278.8917,,[0.0368653138478597],[-0.25422096252441406],[1],[0],[0],[0.6803999999761459],"[""trial_opt2_shape""]",0,46,46,46,1,classic,56,C2I,congruent,,,,,,,,,,,,,,,,,
,,,,,,,,,,,,,,,,test3,2,2020-01-01_00h00.00.000,stroop_artemis_2025.2.3,2025.2.4,Linux armv81,59.88023952,,,,,,,,,,,,,,,,,,,,,,,,,,,,,,,,,,,,,,,,,,,,,,,,,,,,,,,,,,,,,,,,,,,,,,,,,,,,,,,,,,,,,,,,,,,,,,,,,,,,,,,,,,PINK,saddlebrown,1.084,278.8933,280.0917,,[0.0454102357228597],[-0.20978736877441406],[1],[0],[0],[0.6972999999522926],"[""trial_opt2_shape""]",0,47,47,47,1,classic,56,C2I,incongruent,,,,,,,,,,,,,,,,,
,,,,,,,,,,,,,,,,test3,2,2020-01-01_00h00.00.000,stroop_artemis_2025.2.3,2025.2.4,Linux armv81,59.88023952,,,,,,,,,,,,,,,,,,,,,,,,,,,,,,,,,,,,,,,,,,,,,,,,,,,,,,,,,,,,,,,,,,,,,,,,,,,,,,,,,,,,,,,,,,,,,,,,,,,,,,,,,,XXXX,hotpink,1.167,280.0934,281.3748,,[0.2744142214457194],[-0.2298882802327474],[1],[0],[0],[0.563800000011895],"[""trial_opt3_shape""]",0,48,48,48,1,classic,57,NI,neutral,,,,,,,,,,,,,,,,,
,,,,,,,,,,,,,,,,test3,2,2020-01-01_00h00.00.000,stroop_artemis_2025.2.3,2025.2.4,Linux armv81,59.88023952,,,,,,,,,,,,,,,,,,,,,,,,,,,,,,,,,,,,,,,,,,,,,,,,,,,,,,,,,,,,,,,,,,,,,,,,,,,,,,,,,,,,,,,,,,,,,,,,,,,,,,,,,,BROWN,blue,1.2,281.3766,282.6912,,[-0.32763671875],[-0.21296119689941406],[1],[0],[0],[0.4136999999880686],"[""trial_opt1_shape""]",0,49,49,49,1,classic,57,NI,incongruent,,,,,,,,,,,,,,,,,
,,,,,,,,,,,,,,,,test3,2,2020-01-01_00h00.00.000,stroop_artemis_2025.2.3,2025.2.4,Linux armv81,59.88023952,,,,,,,,,,,,,,,,,,,,,,,,,,,,,,,,,,,,,,,,,,,,,,,,,,,,,,,,,,,,,,,,,,,,,,,,,,,,,,,,,,,,,,,,,,,,,,,,,,,,,,,,,,BLUE,blue,1.067,282.6927,283.8742,,[-0.28149410088857013],[-0.19074440002441406],[1],[0],[0],[0.5811999999880868],"[""trial_opt1_shape""]",0,50,50,50,1,classic,58,C3I,congruent,,,,,,,,,,,,,,,,,
,,,,,,,,,,,,,,,,test3,2,2020-01-01_00h00.00.000,stroop_artemis_2025.2.3,2025.2.4,Linux armv81,59.88023952,,,,,,,,,,,,,,,,,,,,,,,,,,,,,,,,,,,,,,,,,,,,,,,,,,,,,,,,,,,,,,,,,,,,,,,,,,,,,,,,,,,,,,,,,,,,,,,,,,,,,,,,,,PINK,hotpink,1.15,283.875,285.1415,,[0.24951171875],[-0.2171929677327474],[1],[0],[0],[0.5506999999881259],"[""trial_opt3_shape""]",0,51,51,51,1,classic,58,C3I,congruent,,,,,,,,,,,,,,,,,
,,,,,,,,,,,,,,,,test3,2,2020-01-01_00h00.00.000,stroop_artemis_2025.2.3,2025.2.4,Linux armv81,59.88023952,,,,,,,,,,,,,,,,,,,,,,,,,,,,,,,,,,,,,,,,,,,,,,,,,,,,,,,,,,,,,,,,,,,,,,,,,,,,,,,,,,,,,,,,,,,,,,,,,,,,,,,,,,BROWN,saddlebrown,1.034,285.1431,286.2919,,[-0.0021971861521402993],[-0.2600396474202474],[1],[0],[0],[0.6309000000357514],"[""trial_opt2_shape""]",0,52,52,52,1,classic,58,C3I,congruent,,,,,,,,,,,,,,,,,
,,,,,,,,,,,,,,,,test3,2,2020-01-01_00h00.00.000,stroop_artemis_2025.2.3,2025.2.4,Linux armv81,59.88023952,,,,,,,,,,,,,,,,,,,,,,,,,,,,,,,,,,,,,,,,,,,,,,,,,,,,,,,,,,,,,,,,,,,,,,,,,,,,,,,,,,,,,,,,,,,,,,,,,,,,,,,,,,BROWN,hotpink,1.084,286.2928,287.4918,,[0.254638671875],[-0.22406959533691406],[1],[0],[0],[0.6645000000000323],"[""trial_opt3_shape""]",0,53,53,53,1,classic,58,C3I,incongruent,,,,,,,,,,,,,,,,,
,,,,,,,,,,,,,,,,test3,2,2020-01-01_00h00.00.000,stroop_artemis_2025.2.3,2025.2.4,Linux armv81,59.88023952,,,,,,,,,,,,,,,,,,,,,,,,,,,,,,,,,,,,,,,,,,,,,,,,,,,,,,,,,,,,,,,,,,,,,,,,,,,,,,,,,,,,,,,,,,,,,,,,,,,,,,,,,,BROWN,saddlebrown,1.117,287.4928,288.7165,,[0.0388184388478597],[-0.22777239481608072],[1],[0],[0],[0.5817000000476469],"[""trial_opt2_shape""]",0,54,54,54,1,classic,59,C6I,congruent,,,,,,,,,,,,,,,,,
,,,,,,,,,,,,,,,,test3,2,2020-01-01_00h00.00.000,stroop_artemis_2025.2.3,2025.2.4,Linux armv81,59.88023952,,,,,,,,,,,,,,,,,,,,,,,,,,,,,,,,,,,,,,,,,,,,,,,,,,,,,,,,,,,,,,,,,,,,,,,,,,,,,,,,,,,,,,,,,,,,,,,,,,,,,,,,,,BLUE,blue,1.134,288.7181,289.9667,,[-0.29638667901357013],[-0.24046770731608072],[1],[0],[0],[0.41419999998811363],"[""trial_opt1_shape""]",0,55,55,55,1,classic,59,C6I,congruent,,,,,,,,,,,,,,,,,
,,,,,,,,,,,,,,,,test3,2,2020-01-01_00h00.00.000,stroop_artemis_2025.2.3,2025.2.4,Linux armv81,59.88023952,,,,,,,,,,,,,,,,,,,,,,,,,,,,,,,,,,,,,,,,,,,,,,,,,,,,,,,,,,,,,,,,,,,,,,,,,,,,,,,,,,,,,,,,,,,,,,,,,,,,,,,,,,PINK,hotpink,1,289.9683,291.0834,,[0.2729493776957194],[-0.22724342346191406],[1],[0],[0],[0.5471000000238746],"[""trial_opt3_shape""]",0,56,56,56,1,classic,59,C6I,congruent,,,,,,,,,,,,,,,,,
,,,,,,,,,,,,,,,,test3,2,2020-01-01_00h00.00.000,stroop_artemis_2025.2.3,2025.2.4,Linux armv81,59.88023952,,,,,,,,,,,,,,,,,,,,,,,,,,,,,,,,,,,,,,,,,,,,,,,,,,,,,,,,,,,,,,,,,,,,,,,,,,,,,,,,,,,,,,,,,,,,,,,,,,,,,,,,,,BROWN,saddlebrown,1.017,291.0852,292.2163,,[0.0002442200978597005],[-0.26374244689941406],[1],[0],[0],[0.6306999999880532],"[""trial_opt2_shape""]",0,57,57,57,1,classic,59,C6I,congruent,,,,,,,,,,,,,,,,,
,,,,,,,,,,,,,,,,test3,2,2020-01-01_00h00.00.000,stroop_artemis_2025.2.3,2025.2.4,Linux armv81,59.88023952,,,,,,,,,,,,,,,,,,,,,,,,,,,,,,,,,,,,,,,,,,,,,,,,,,,,,,,,,,,,,,,,,,,,,,,,,,,,,,,,,,,,,,,,,,,,,,,,,,,,,,,,,,PINK,hotpink,1.184,292.2181,293.5079,,[0.2963868776957194],[-0.2314751942952474],[1],[0],[0],[0.5978000000119437],"[""trial_opt3_shape""]",0,58,58,58,1,classic,59,C6I,congruent,,,,,,,,,,,,,,,,,
,,,,,,,,,,,,,,,,test3,2,2020-01-01_00h00.00.000,stroop_artemis_2025.2.3,2025.2.4,Linux armv81,59.88023952,,,,,,,,,,,,,,,,,,,,,,,,,,,,,,,,,,,,,,,,,,,,,,,,,,,,,,,,,,,,,,,,,,,,,,,,,,,,,,,,,,,,,,,,,,,,,,,,,,,,,,,,,,BLUE,blue,1.05,293.5093,294.6751,,[-0.28735347588857013],[-0.27009010314941406],[1],[0],[0],[0.4479999999999791],"[""trial_opt1_shape""]",0,59,59,59,1,classic,59,C6I,congruent,,,,,,,,,,,,,,,,,
,,,,,,,,,,,,,,,,test3,2,2020-01-01_00h00.00.000,stroop_artemis_2025.2.3,2025.2.4,Linux armv81,59.88023952,,,,,,,,,,,,,,,,,,,,,,,,,,,,,,,,,,,,,,,,,,,,,,,,,,,,,,,,,,,,,,,,,,,,,,,,,,,,,,,,,,,,,,,,,,,,,,,,,,,,,,,,,,PINK,blue,1.1,294.6766,295.8835,,[-0.28369136651357013],[-0.24046770731608072],[1],[0],[0],[0.43080000001191365],"[""trial_opt1_shape""]",0,60,60,60,1,classic,59,C6I,incongruent,,,,,,,,,,,,,,,,,
,,,,,,,,,,,,,,,,test3,2,2020-01-01_00h00.00.000,stroop_artemis_2025.2.3,2025.2.4,Linux armv81,59.88023952,,,,,,,,,,,,,,,,,,,,,,,,,,,,,,,,,,,,,,,,,,,,,,,,,,,,,,,,,,,,,,,,,,,,,,,,,,,,,,,,,,,,,,,,,,,,,,,,,,,,,,,,,,BLUE,hotpink,1.05,295.885,297.0499,,[0.2766114870707194],[-0.25104713439941406],[1],[0],[0],[0.48050000000000637],"[""trial_opt3_shape""]",0,61,61,61,1,classic,60,I4,incongruent,,,,,,,,,,,,,,,,,
,,,,,,,,,,,,,,,,test3,2,2020-01-01_00h00.00.000,stroop_artemis_2025.2.3,2025.2.4,Linux armv81,59.88023952,,,,,,,,,,,,,,,,,,,,,,,,,,,,,,,,,,,,,,,,,,,,,,,,,,,,,,,,,,,,,,,,,,,,,,,,,,,,,,,,,,,,,,,,,,,,,,,,,,,,,,,,,,BLUE,saddlebrown,1.067,297.0509,298.2326,,[0.0617676575978597],[-0.2901910146077474],[1],[0],[0],[0.6651000000238128],"[""trial_opt2_shape""]",0,62,62,62,1,classic,60,I4,incongruent,,,,,,,,,,,,,,,,,
,,,,,,,,,,,,,,,,test3,2,2020-01-01_00h00.00.000,stroop_artemis_2025.2.3,2025.2.4,Linux armv81,59.88023952,,,,,,,,,,,,,,,,,,,,,,,,,,,,,,,,,,,,,,,,,,,,,,,,,,,,,,,,,,,,,,,,,,,,,,,,,,,,,,,,,,,,,,,,,,,,,,,,,,,,,,,,,,PINK,saddlebrown,1.084,298.2333,299.4247,,[0.0507813294728597],[-0.21296119689941406],[1],[0],[0],[0.5995000000000346],"[""trial_opt2_shape""]",0,63,63,63,1,classic,60,I4,incongruent,,,,,,,,,,,,,,,,,
,,,,,,,,,,,,,,,,test3,2,2020-01-01_00h00.00.000,stroop_artemis_2025.2.3,2025.2.4,Linux armv81,59.88023952,,,,,,,,,,,,,,,,,,,,,,,,,,,,,,,,,,,,,,,,,,,,,,,,,,,,,,,,,,,,,,,,,,,,,,,,,,,,,,,,,,,,,,,,,,,,,,,,,,,,,,,,,,BROWN,saddlebrown,1.034,299.4262,300.5751,,[0.0295410950978597],[-0.20396868387858072],[1],[0],[0],[0.4644999999999868],"[""trial_opt2_shape""]",0,64,64,64,1,classic,61,C5I,congruent,,,,,,,,,,,,,,,,,
,,,,,,,,,,,,,,,,test3,2,2020-01-01_00h00.00.000,stroop_artemis_2025.2.3,2025.2.4,Linux armv81,59.88023952,,,,,,,,,,,,,,,,,,,,,,,,,,,,,,,,,,,,,,,,,,,,,,,,,,,,,,,,,,,,,,,,,,,,,,,,,,,,,,,,,,,,,,,,,,,,,,,,,,,,,,,,,,PINK,hotpink,1.2,300.5768,301.8915,,[0.235595703125],[-0.22406959533691406],[1],[0],[0],[0.5469999999999686],"[""trial_opt3_shape""]",0,65,65,65,1,classic,61,C5I,congruent,,,,,,,,,,,,,,,,,
,,,,,,,,,,,,,,,,test3,2,2020-01-01_00h00.00.000,stroop_artemis_2025.2.3,2025.2.4,Linux armv81,59.88023952,,,,,,,,,,,,,,,,,,,,,,,,,,,,,,,,,,,,,,,,,,,,,,,,,,,,,,,,,,,,,,,,,,,,,,,,,,,,,,,,,,,,,,,,,,,,,,,,,,,,,,,,,,BLUE,blue,1.017,301.8933,303.0251,,[-0.322265625],[-0.24998919169108072],[1],[0],[0],[0.44719999998807225],"[""trial_opt1_shape""]",0,66,66,66,1,classic,61,C5I,congruent,,,,,,,,,,,,,,,,,
,,,,,,,,,,,,,,,,test3,2,2020-01-01_00h00.00.000,stroop_artemis_2025.2.3,2025.2.4,Linux armv81,59.88023952,,,,,,,,,,,,,,,,,,,,,,,,,,,,,,,,,,,,,,,,,,,,,,,,,,,,,,,,,,,,,,,,,,,,,,,,,,,,,,,,,,,,,,,,,,,,,,,,,,,,,,,,,,BROWN,saddlebrown,1.15,303.0269,304.2833,,[0.0310059388478597],[-0.2251275380452474],[1],[0],[0],[0.5800999999642045],"[""trial_opt2_shape""]",0,67,67,67,1,classic,61,C5I,congruent,,,,,,,,,,,,,,,,,
,,,,,,,,,,,,,,,,test3,2,2020-01-01_00h00.00.000,stroop_artemis_2025.2.3,2025.2.4,Linux armv81,59.88023952,,,,,,,,,,,,,,,,,,,,,,,,,,,,,,,,,,,,,,,,,,,,,,,,,,,,,,,,,,,,,,,,,,,,,,,,,,,,,,,,,,,,,,,,,,,,,,,,,,,,,,,,,,BLUE,blue,1.134,304.2849,305.5331,,[-0.315673828125],[-0.20079485575358072],[1],[0],[0],[0.5640000000000214],"[""trial_opt1_shape""]",0,68,68,68,1,classic,61,C5I,congruent,,,,,,,,,,,,,,,,,
,,,,,,,,,,,,,,,,test3,2,2020-01-01_00h00.00.000,stroop_artemis_2025.2.3,2025.2.4,Linux armv81,59.88023952,,,,,,,,,,,,,,,,,,,,,,,,,,,,,,,,,,,,,,,,,,,,,,,,,,,,,,,,,,,,,,,,,,,,,,,,,,,,,,,,,,,,,,,,,,,,,,,,,,,,,,,,,,BLUE,saddlebrown,1.1,305.5341,306.7502,,[0.0070801575978597],[-0.24046770731608072],[1],[0],[0],[0.7483999999761863],"[""trial_opt2_shape""]",0,69,69,69,1,classic,61,C5I,incongruent,,,,,,,,,,,,,,,,,
,,,,,,,,,,,,,,,,test3,2,2020-01-01_00h00.00.000,stroop_artemis_2025.2.3,2025.2.4,Linux armv81,59.88023952,,,,,,,,,,,,,,,,,,,,,,,,,,,,,,,,,,,,,,,,,,,,,,,,,,,,,,,,,,,,,,,,,,,,,,,,,,,,,,,,,,,,,,,,,,,,,,,,,,,,,,,,,,XXXXX,saddlebrown,1,306.7518,307.8669,,[0.0158692200978597],[-0.2298882802327474],[1],[0],[0],[0.6803999999761459],"[""trial_opt2_shape""]",0,70,70,70,1,classic,62,N3I,neutral,,,,,,,,,,,,,,,,,
,,,,,,,,,,,,,,,,test3,2,2020-01-01_00h00.00.000,stroop_artemis_2025.2.3,2025.2.4,Linux armv81,59.88023952,,,,,,,,,,,,,,,,,,,,,,,,,,,,,,,,,,,,,,,,,,,,,,,,,,,,,,,,,,,,,,,,,,,,,,,,,,,,,,,,,,,,,,,,,,,,,,,,,,,,,,,,,,XXXX,hotpink,1.117,307.8686,309.1,,[0.229248046875],[-0.23253313700358072],[1],[0],[0],[0.59699999999998],"[""trial_opt3_shape""]",0,71,71,71,1,classic,62,N3I,neutral,,,,,,,,,,,,,,,,,
,,,,,,,,,,,,,,,,test3,2,2020-01-01_00h00.00.000,stroop_artemis_2025.2.3,2025.2.4,Linux armv81,59.88023952,,,,,,,,,,,,,,,,,,,,,,,,,,,,,,,,,,,,,,,,,,,,,,,,,,,,,,,,,,,,,,,,,,,,,,,,,,,,,,,,,,,,,,,,,,,,,,,,,,,,,,,,,,XXX,blue,1.167,309.1016,310.3745,,[-0.31787109375],[-0.24469947814941406],[1],[0],[0],[0.5974999999999682],"[""trial_opt1_shape""]",0,72,72,72,1,classic,62,N3I,neutral,,,,,,,,,,,,,,,,,
,,,,,,,,,,,,,,,,test3,2,2020-01-01_00h00.00.000,stroop_artemis_2025.2.3,2025.2.4,Linux armv81,59.88023952,,,,,,,,,,,,,,,,,,,,,,,,,,,,,,,,,,,,,,,,,,,,,,,,,,,,,,,,,,,,,,,,,,,,,,,,,,,,,,,,,,,,,,,,,,,,,,,,,,,,,,,,,,BROWN,hotpink,1.184,310.3759,311.6668,,[0.2658692995707194],[-0.25474993387858075],[1],[0],[0],[0.6646000000238246],"[""trial_opt3_shape""]",0,73,73,73,1,classic,62,N3I,incongruent,,,,,,,,,,,,,,,,,
,,,,,,,,,,,,,,,,test3,2,2020-01-01_00h00.00.000,stroop_artemis_2025.2.3,2025.2.4,Linux armv81,59.88023952,,,,,,,,,,,,,,,,,,,,,,,,,,,,,,,,,,,,,,,,,,,,,,,,,,,,,,,,,,,,,,,,,,,,,,,,,,,,,,,,,,,,,,,,,,,,,,,,,,,,,,,,,,PINK,hotpink,1.017,311.6684,312.7999,,[0.2717286745707194],[-0.21296119689941406],[1],[0],[0],[0.39839999997610676],"[""trial_opt3_shape""]",0,74,74,74,1,classic,63,C7I,congruent,,,,,,,,,,,,,,,,,
,,,,,,,,,,,,,,,,test3,2,2020-01-01_00h00.00.000,stroop_artemis_2025.2.3,2025.2.4,Linux armv81,59.88023952,,,,,,,,,,,,,,,,,,,,,,,,,,,,,,,,,,,,,,,,,,,,,,,,,,,,,,,,,,,,,,,,,,,,,,,,,,,,,,,,,,,,,,,,,,,,,,,,,,,,,,,,,,BROWN,saddlebrown,1.05,312.8017,313.9583,,[-0.00024406115214029947],[-0.1854546864827474],[1],[0],[0],[0.6465999999642236],"[""trial_opt2_shape""]",0,75,75,75,1,classic,63,C7I,congruent,,,,,,,,,,,,,,,,,
,,,,,,,,,,,,,,,,test3,2,2020-01-01_00h00.00.000,stroop_artemis_2025.2.3,2025.2.4,Linux armv81,59.88023952,,,,,,,,,,,,,,,,,,,,,,,,,,,,,,,,,,,,,,,,,,,,,,,,,,,,,,,,,,,,,,,,,,,,,,,,,,,,,,,,,,,,,,,,,,,,,,,,,,,,,,,,,,PINK,hotpink,1.167,313.9601,315.2415,,[0.2844239870707194],[-0.2060845692952474],[1],[0],[0],[0.6807000000476933],"[""trial_opt3_shape""]",0,76,76,76,1,classic,63,C7I,congruent,,,,,,,,,,,,,,,,,
,,,,,,,,,,,,,,,,test3,2,2020-01-01_00h00.00.000,stroop_artemis_2025.2.3,2025.2.4,Linux armv81,59.88023952,,,,,,,,,,,,,,,,,,,,,,,,,,,,,,,,,,,,,,,,,,,,,,,,,,,,,,,,,,,,,,,,,,,,,,,,,,,,,,,,,,,,,,,,,,,,,,,,,,,,,,,,,,BLUE,blue,1.15,315.2433,316.5001,,[-0.316650390625],[-0.26268450419108075],[1],[0],[0],[0.5135999999642422],"[""trial_opt1_shape""]",0,77,77,77,1,classic,63,C7I,congruent,,,,,,,,,,,,,,,,,
,,,,,,,,,,,,,,,,test3,2,2020-01-01_00h00.00.000,stroop_artemis_2025.2.3,2025.2.4,Linux armv81,59.88023952,,,,,,,,,,,,,,,,,,,,,,,,,,,,,,,,,,,,,,,,,,,,,,,,,,,,,,,,,,,,,,,,,,,,,,,,,,,,,,,,,,,,,,,,,,,,,,,,,,,,,,,,,,PINK,hotpink,1.117,316.502,317.7335,,[0.256103515625],[-0.23517799377441406],[1],[0],[0],[0.4965999999642463],"[""trial_opt3_shape""]",0,78,78,78,1,classic,63,C7I,congruent,,,,,,,,,,,,,,,,,
,,,,,,,,,,,,,,,,test3,2,2020-01-01_00h00.00.000,stroop_artemis_2025.2.3,2025.2.4,Linux armv81,59.88023952,,,,,,,,,,,,,,,,,,,,,,,,,,,,,,,,,,,,,,,,,,,,,,,,,,,,,,,,,,,,,,,,,,,,,,,,,,,,,,,,,,,,,,,,,,,,,,,,,,,,,,,,,,BLUE,blue,1,317.7353,318.8413,,[-0.29394527276357013],[-0.21296119689941406],[1],[0],[0],[0.5629999999999882],"[""trial_opt1_shape""]",0,79,79,79,1,classic,63,C7I,congruent,,,,,,,,,,,,,,,,,
,,,,,,,,,,,,,,,,test3,2,2020-01-01_00h00.00.000,stroop_artemis_2025.2.3,2025.2.4,Linux armv81,59.88023952,,,,,,,,,,,,,,,,,,,,,,,,,,,,,,,,,,,,,,,,,,,,,,,,,,,,,,,,,,,,,,,,,,,,,,,,,,,,,,,,,,,,,,,,,,,,,,,,,,,,,,,,,,BROWN,saddlebrown,1.2,318.843,320.1494,,[0.0266114075978597],[-0.24364153544108072],[1],[0],[0],[0.5470000000000255],"[""trial_opt2_shape""]",0,80,80,80,1,classic,63,C7I,congruent,,,,,,,,,,,,,,,,,
