device_detector.started,device_detector.stopped,device_primaryInput,device_screenWidth,device_screenHeight,device_hasTouch,device_hasKeyboard,device_hasMouse,device_userAgent,init_key_input.keys,init_key_input.rt,init_key_input.duration,init_touch_input.x,init_touch_input.y,init_touch_input.leftButton,init_touch_input.midButton,init_touch_input.rightButton,init_touch_input.time,participant,session,phase,attempt,date,expName,psychopyVersion,OS,frameRate,intro.started,intro.stopped,video_inst.started,video_inst.stopped,inst.started,inst.stopped,key_resp.keys,key_resp.rt,key_resp.duration,mouse.x,mouse.y,mouse.leftButton,mouse.midButton,mouse.rightButton,mouse.time,ready.started,ready.stopped,trial.started,trial.stopped,trial_spacebar.keys,trial_spacebar.rt,trial_spacebar.duration,trial_mouse.x,trial_mouse.y,trial_mouse.leftButton,trial_mouse.midButton,trial_mouse.rightButton,trial_mouse.time,trial_mouse.clicked_name,trials.thisRepN,trials.thisTrialN,trials.thisN,trials.thisIndex,trials.ran,trial_end.started,trial_end.stopped,blocks.thisRepN,blocks.thisTrialN,blocks.thisN,blocks.thisIndex,blocks.ran,task_end.started,task_end.stopped
0.0008,3.9501,keyboard,1536,703,FALSE,TRUE,TRUE,"Mozilla/5.0 (Windows NT 10.0; Win64; x64) AppleWebKit/537.36 (KHTML, like Gecko) Chrome/147.0.0.0 Safari/537.36",return,3.9154,,[],[],[],[],[],[],test4,2,soar2,a,2020-01-01_12h00.00.000,fingerosc_soar_2025.2.3,2025.2.4,Win32,60.97560976,,,,,,,,,,,,,,,,,,,,,,,,,,,,,,,,,,,,,,,,,,,
,,,,,,,,,,,,,,,,,,test4,2,soar2,a,2020-01-01_12h00.00.000,fingerosc_soar_2025.2.3,2025.2.4,Win32,60.97560976,3.9506,6.9455,,,,,,,,,,,,,,,,,,,,,,,,,,,,,,,,,,,,,,,,,
,,,,,,,,,,,,,,,,,,test4,2,soar2,a,2020-01-01_12h00.00.000,fingerosc_soar_2025.2.3,2025.2.4,Win32,60.97560976,,,6.9472,6.9523,,,,,,,,,,,,,,,,,,,,,,,,,,,,,,,,,,,,,,,
,,,,,,,,,,,,,,,,,,test4,2,soar2,a,2020-01-01_12h00.00.000,fingerosc_soar_2025.2.3,2025.2.4,Win32,60.97560976,,,,,6.9588,20.7507,space,13.2773,,[],[],[],[],[],[],20.751,25.7447,25.7481,26.2446,space,0.4626,,[],[],[],[],[],[],[],0,0,0,0,1,,,,,,,,,
,,,,,,,,,,,,,,,,,,test4,2,soar2,a,2020-01-01_12h00.00.000,fingerosc_soar_2025.2.3,2025.2.4,Win32,60.97560976,,,,,,,,,,,,,,,,,,26.2455,26.4448,space,0.1891,,[],[],[],[],[],[],[],1,0,1,0,1,,,,,,,,,
,,,,,,,,,,,,,,,,,,test4,2,soar2,a,2020-01-01_12h00.00.000,fingerosc_soar_2025.2.3,2025.2.4,Win32,60.97560976,,,,,,,,,,,,,,,,,,26.4452,26.6279,space,0.1732,,[],[],[],[],[],[],[],2,0,2,0,1,,,,,,,,,
,,,,,,,,,,,,,,,,,,test4,2,soar2,a,2020-01-01_12h00.00.000,fingerosc_soar_2025.2.3,2025.2.4,Win32,60.97560976,,,,,,,,,,,,,,,,,,26.6284,26.9447,space,0.3007,,[],[],[],[],[],[],[],3,0,3,0,1,,,,,,,,,
,,,,,,,,,,,,,,,,,,test4,2,soar2,a,2020-01-01_12h00.00.000,fingerosc_soar_2025.2.3,2025.2.4,Win32,60.97560976,,,,,,,,,,,,,,,,,,26.9452,27.1279,space,0.1675,,[],[],[],[],[],[],[],4,0,4,0,1,,,,,,,,,
,,,,,,,,,,,,,,,,,,test4,2,soar2,a,2020-01-01_12h00.00.000,fingerosc_soar_2025.2.3,2025.2.4,Win32,60.97560976,,,,,,,,,,,,,,,,,,27.1284,27.2943,space,0.1544,,[],[],[],[],[],[],[],5,0,5,0,1,,,,,,,,,
,,,,,,,,,,,,,,,,,,test4,2,soar2,a,2020-01-01_12h00.00.000,fingerosc_soar_2025.2.3,2025.2.4,Win32,60.97560976,,,,,,,,,,,,,,,,,,27.2949,27.4608,space,0.1532,,[],[],[],[],[],[],[],6,0,6,0,1,,,,,,,,,
,,,,,,,,,,,,,,,,,,test4,2,soar2,a,2020-01-01_12h00.00.000,fingerosc_soar_2025.2.3,2025.2.4,Win32,60.97560976,,,,,,,,,,,,,,,,,,27.4612,27.6279,space,0.1579,,[],[],[],[],[],[],[],7,0,7,0,1,,,,,,,,,
,,,,,,,,,,,,,,,,,,test4,2,soar2,a,2020-01-01_12h00.00.000,fingerosc_soar_2025.2.3,2025.2.4,Win32,60.97560976,,,,,,,,,,,,,,,,,,27.6283,27.8278,space,0.1891,,[],[],[],[],[],[],[],8,0,8,0,1,,,,,,,,,
,,,,,,,,,,,,,,,,,,test4,2,soar2,a,2020-01-01_12h00.00.000,fingerosc_soar_2025.2.3,2025.2.4,Win32,60.97560976,,,,,,,,,,,,,,,,,,27.8283,28.028,space,0.19,,[],[],[],[],[],[],[],9,0,9,0,1,,,,,,,,,
,,,,,,,,,,,,,,,,,,test4,2,soar2,a,2020-01-01_12h00.00.000,fingerosc_soar_2025.2.3,2025.2.4,Win32,60.97560976,,,,,,,,,,,,,,,,,,28.0284,28.2446,space,0.2003,,[],[],[],[],[],[],[],10,0,10,0,1,,,,,,,,,
,,,,,,,,,,,,,,,,,,test4,2,soar2,a,2020-01-01_12h00.00.000,fingerosc_soar_2025.2.3,2025.2.4,Win32,60.97560976,,,,,,,,,,,,,,,,,,28.2451,28.4281,space,0.1684,,[],[],[],[],[],[],[],11,0,11,0,1,,,,,,,,,
,,,,,,,,,,,,,,,,,,test4,2,soar2,a,2020-01-01_12h00.00.000,fingerosc_soar_2025.2.3,2025.2.4,Win32,60.97560976,,,,,,,,,,,,,,,,,,28.4285,28.5944,space,0.1521,,[],[],[],[],[],[],[],12,0,12,0,1,,,,,,,,,
,,,,,,,,,,,,,,,,,,test4,2,soar2,a,2020-01-01_12h00.00.000,fingerosc_soar_2025.2.3,2025.2.4,Win32,60.97560976,,,,,,,,,,,,,,,,,,28.5949,28.7945,space,0.1838,,[],[],[],[],[],[],[],13,0,13,0,1,,,,,,,,,
,,,,,,,,,,,,,,,,,,test4,2,soar2,a,2020-01-01_12h00.00.000,fingerosc_soar_2025.2.3,2025.2.4,Win32,60.97560976,,,,,,,,,,,,,,,,,,28.7949,28.9774,space,0.1761,,[],[],[],[],[],[],[],14,0,14,0,1,,,,,,,,,
,,,,,,,,,,,,,,,,,,test4,2,soar2,a,2020-01-01_12h00.00.000,fingerosc_soar_2025.2.3,2025.2.4,Win32,60.97560976,,,,,,,,,,,,,,,,,,28.9778,29.1778,space,0.1825,,[],[],[],[],[],[],[],15,0,15,0,1,,,,,,,,,
,,,,,,,,,,,,,,,,,,test4,2,soar2,a,2020-01-01_12h00.00.000,fingerosc_soar_2025.2.3,2025.2.4,Win32,60.97560976,,,,,,,,,,,,,,,,,,29.1783,29.3444,space,0.1505,,[],[],[],[],[],[],[],16,0,16,0,1,,,,,,,,,
,,,,,,,,,,,,,,,,,,test4,2,soar2,a,2020-01-01_12h00.00.000,fingerosc_soar_2025.2.3,2025.2.4,Win32,60.97560976,,,,,,,,,,,,,,,,,,29.3448,29.5278,space,0.1741,,[],[],[],[],[],[],[],17,0,17,0,1,,,,,,,,,
,,,,,,,,,,,,,,,,,,test4,2,soar2,a,2020-01-01_12h00.00.000,fingerosc_soar_2025.2.3,2025.2.4,Win32,60.97560976,,,,,,,,,,,,,,,,,,29.5283,29.7108,space,0.178,,[],[],[],[],[],[],[],18,0,18,0,1,,,,,,,,,
,,,,,,,,,,,,,,,,,,test4,2,soar2,a,2020-01-01_12h00.00.000,fingerosc_soar_2025.2.3,2025.2.4,Win32,60.97560976,,,,,,,,,,,,,,,,,,29.7113,29.8946,space,0.167,,[],[],[],[],[],[],[],19,0,19,0,1,,,,,,,,,
,,,,,,,,,,,,,,,,,,test4,2,soar2,a,2020-01-01_12h00.00.000,fingerosc_soar_2025.2.3,2025.2.4,Win32,60.97560976,,,,,,,,,,,,,,,,,,29.8951,30.0773,space,0.1769,,[],[],[],[],[],[],[],20,0,20,0,1,,,,,,,,,
,,,,,,,,,,,,,,,,,,test4,2,soar2,a,2020-01-01_12h00.00.000,fingerosc_soar_2025.2.3,2025.2.4,Win32,60.97560976,,,,,,,,,,,,,,,,,,30.0778,30.2778,space,0.1934,,[],[],[],[],[],[],[],21,0,21,0,1,,,,,,,,,
,,,,,,,,,,,,,,,,,,test4,2,soar2,a,2020-01-01_12h00.00.000,fingerosc_soar_2025.2.3,2025.2.4,Win32,60.97560976,,,,,,,,,,,,,,,,,,30.2781,30.461,space,0.1669,,[],[],[],[],[],[],[],22,0,22,0,1,,,,,,,,,
,,,,,,,,,,,,,,,,,,test4,2,soar2,a,2020-01-01_12h00.00.000,fingerosc_soar_2025.2.3,2025.2.4,Win32,60.97560976,,,,,,,,,,,,,,,,,,30.4614,30.6445,space,0.1676,,[],[],[],[],[],[],[],23,0,23,0,1,,,,,,,,,
,,,,,,,,,,,,,,,,,,test4,2,soar2,a,2020-01-01_12h00.00.000,fingerosc_soar_2025.2.3,2025.2.4,Win32,60.97560976,,,,,,,,,,,,,,,,,,30.6449,30.8279,space,0.1678,,[],[],[],[],[],[],[],24,0,24,0,1,,,,,,,,,
,,,,,,,,,,,,,,,,,,test4,2,soar2,a,2020-01-01_12h00.00.000,fingerosc_soar_2025.2.3,2025.2.4,Win32,60.97560976,,,,,,,,,,,,,,,,,,30.8285,31.0106,space,0.1682,,[],[],[],[],[],[],[],25,0,25,0,1,,,,,,,,,
,,,,,,,,,,,,,,,,,,test4,2,soar2,a,2020-01-01_12h00.00.000,fingerosc_soar_2025.2.3,2025.2.4,Win32,60.97560976,,,,,,,,,,,,,,,,,,31.0112,31.211,space,0.1844,,[],[],[],[],[],[],[],26,0,26,0,1,,,,,,,,,
,,,,,,,,,,,,,,,,,,test4,2,soar2,a,2020-01-01_12h00.00.000,fingerosc_soar_2025.2.3,2025.2.4,Win32,60.97560976,,,,,,,,,,,,,,,,,,31.2114,31.3944,space,0.1713,,[],[],[],[],[],[],[],27,0,27,0,1,,,,,,,,,
,,,,,,,,,,,,,,,,,,test4,2,soar2,a,2020-01-01_12h00.00.000,fingerosc_soar_2025.2.3,2025.2.4,Win32,60.97560976,,,,,,,,,,,,,,,,,,31.3949,31.5437,space,0.1377,,[],[],[],[],[],[],[],28,0,28,0,1,,,,,,,,,
,,,,,,,,,,,,,,,,,,test4,2,soar2,a,2020-01-01_12h00.00.000,fingerosc_soar_2025.2.3,2025.2.4,Win32,60.97560976,,,,,,,,,,,,,,,,,,31.544,31.6944,space,0.1353,,[],[],[],[],[],[],[],29,0,29,0,1,,,,,,,,,
,,,,,,,,,,,,,,,,,,test4,2,soar2,a,2020-01-01_12h00.00.000,fingerosc_soar_2025.2.3,2025.2.4,Win32,60.97560976,,,,,,,,,,,,,,,,,,31.6948,31.8444,space,0.1331,,[],[],[],[],[],[],[],30,0,30,0,1,,,,,,,,,
,,,,,,,,,,,,,,,,,,test4,2,soar2,a,2020-01-01_12h00.00.000,fingerosc_soar_2025.2.3,2025.2.4,Win32,60.97560976,,,,,,,,,,,,,,,,,,31.8449,31.9938,space,0.1422,,[],[],[],[],[],[],[],31,0,31,0,1,,,,,,,,,
,,,,,,,,,,,,,,,,,,test4,2,soar2,a,2020-01-01_12h00.00.000,fingerosc_soar_2025.2.3,2025.2.4,Win32,60.97560976,,,,,,,,,,,,,,,,,,31.9943,32.1612,space,0.1494,,[],[],[],[],[],[],[],32,0,32,0,1,,,,,,,,,
,,,,,,,,,,,,,,,,,,test4,2,soar2,a,2020-01-01_12h00.00.000,fingerosc_soar_2025.2.3,2025.2.4,Win32,60.97560976,,,,,,,,,,,,,,,,,,32.1616,32.3111,space,0.1358,,[],[],[],[],[],[],[],33,0,33,0,1,,,,,,,,,
,,,,,,,,,,,,,,,,,,test4,2,soar2,a,2020-01-01_12h00.00.000,fingerosc_soar_2025.2.3,2025.2.4,Win32,60.97560976,,,,,,,,,,,,,,,,,,32.3116,32.4776,space,0.1535,,[],[],[],[],[],[],[],34,0,34,0,1,,,,,,,,,
,,,,,,,,,,,,,,,,,,test4,2,soar2,a,2020-01-01_12h00.00.000,fingerosc_soar_2025.2.3,2025.2.4,Win32,60.97560976,,,,,,,,,,,,,,,,,,32.478,32.6274,space,0.1336,,[],[],[],[],[],[],[],35,0,35,0,1,,,,,,,,,
,,,,,,,,,,,,,,,,,,test4,2,soar2,a,2020-01-01_12h00.00.000,fingerosc_soar_2025.2.3,2025.2.4,Win32,60.97560976,,,,,,,,,,,,,,,,,,32.6279,32.7611,space,0.1246,,[],[],[],[],[],[],[],36,0,36,0,1,,,,,,,,,
,,,,,,,,,,,,,,,,,,test4,2,soar2,a,2020-01-01_12h00.00.000,fingerosc_soar_2025.2.3,2025.2.4,Win32,60.97560976,,,,,,,,,,,,,,,,,,32.7617,32.9273,space,0.1493,,[],[],[],[],[],[],[],37,0,37,0,1,,,,,,,,,
,,,,,,,,,,,,,,,,,,test4,2,soar2,a,2020-01-01_12h00.00.000,fingerosc_soar_2025.2.3,2025.2.4,Win32,60.97560976,,,,,,,,,,,,,,,,,,32.9277,33.0775,space,0.1322,,[],[],[],[],[],[],[],38,0,38,0,1,,,,,,,,,
,,,,,,,,,,,,,,,,,,test4,2,soar2,a,2020-01-01_12h00.00.000,fingerosc_soar_2025.2.3,2025.2.4,Win32,60.97560976,,,,,,,,,,,,,,,,,,33.078,33.2277,space,0.1454,,[],[],[],[],[],[],[],39,0,39,0,1,,,,,,,,,
,,,,,,,,,,,,,,,,,,test4,2,soar2,a,2020-01-01_12h00.00.000,fingerosc_soar_2025.2.3,2025.2.4,Win32,60.97560976,,,,,,,,,,,,,,,,,,33.2282,33.3943,space,0.1494,,[],[],[],[],[],[],[],40,0,40,0,1,,,,,,,,,
,,,,,,,,,,,,,,,,,,test4,2,soar2,a,2020-01-01_12h00.00.000,fingerosc_soar_2025.2.3,2025.2.4,Win32,60.97560976,,,,,,,,,,,,,,,,,,33.3949,33.5437,space,0.143,,[],[],[],[],[],[],[],41,0,41,0,1,,,,,,,,,
,,,,,,,,,,,,,,,,,,test4,2,soar2,a,2020-01-01_12h00.00.000,fingerosc_soar_2025.2.3,2025.2.4,Win32,60.97560976,,,,,,,,,,,,,,,,,,33.5442,33.7107,space,0.1571,,[],[],[],[],[],[],[],42,0,42,0,1,,,,,,,,,
,,,,,,,,,,,,,,,,,,test4,2,soar2,a,2020-01-01_12h00.00.000,fingerosc_soar_2025.2.3,2025.2.4,Win32,60.97560976,,,,,,,,,,,,,,,,,,33.7112,33.861,space,0.1421,,[],[],[],[],[],[],[],43,0,43,0,1,,,,,,,,,
,,,,,,,,,,,,,,,,,,test4,2,soar2,a,2020-01-01_12h00.00.000,fingerosc_soar_2025.2.3,2025.2.4,Win32,60.97560976,,,,,,,,,,,,,,,,,,33.8614,34.0104,space,0.1432,,[],[],[],[],[],[],[],44,0,44,0,1,,,,,,,,,
,,,,,,,,,,,,,,,,,,test4,2,soar2,a,2020-01-01_12h00.00.000,fingerosc_soar_2025.2.3,2025.2.4,Win32,60.97560976,,,,,,,,,,,,,,,,,,34.011,34.1775,space,0.1544,,[],[],[],[],[],[],[],45,0,45,0,1,,,,,,,,,
,,,,,,,,,,,,,,,,,,test4,2,soar2,a,2020-01-01_12h00.00.000,fingerosc_soar_2025.2.3,2025.2.4,Win32,60.97560976,,,,,,,,,,,,,,,,,,34.178,34.3438,space,0.1515,,[],[],[],[],[],[],[],46,0,46,0,1,,,,,,,,,
,,,,,,,,,,,,,,,,,,test4,2,soar2,a,2020-01-01_12h00.00.000,fingerosc_soar_2025.2.3,2025.2.4,Win32,60.97560976,,,,,,,,,,,,,,,,,,34.3443,34.5107,space,0.1509,,[],[],[],[],[],[],[],47,0,47,0,1,,,,,,,,,
,,,,,,,,,,,,,,,,,,test4,2,soar2,a,2020-01-01_12h00.00.000,fingerosc_soar_2025.2.3,2025.2.4,Win32,60.97560976,,,,,,,,,,,,,,,,,,34.5112,34.6774,space,0.1564,,[],[],[],[],[],[],[],48,0,48,0,1,,,,,,,,,
,,,,,,,,,,,,,,,,,,test4,2,soar2,a,2020-01-01_12h00.00.000,fingerosc_soar_2025.2.3,2025.2.4,Win32,60.97560976,,,,,,,,,,,,,,,,,,34.678,34.8602,space,0.1757,,[],[],[],[],[],[],[],49,0,49,0,1,,,,,,,,,
,,,,,,,,,,,,,,,,,,test4,2,soar2,a,2020-01-01_12h00.00.000,fingerosc_soar_2025.2.3,2025.2.4,Win32,60.97560976,,,,,,,,,,,,,,,,,,34.8607,35.077,space,0.208,,[],[],[],[],[],[],[],50,0,50,0,1,,,,,,,,,
,,,,,,,,,,,,,,,,,,test4,2,soar2,a,2020-01-01_12h00.00.000,fingerosc_soar_2025.2.3,2025.2.4,Win32,60.97560976,,,,,,,,,,,,,,,,,,35.0774,35.3102,space,0.2276,,[],[],[],[],[],[],[],51,0,51,0,1,,,,,,,,,
,,,,,,,,,,,,,,,,,,test4,2,soar2,a,2020-01-01_12h00.00.000,fingerosc_soar_2025.2.3,2025.2.4,Win32,60.97560976,,,,,,,,,,,,,,,,,,35.3106,35.5437,space,0.2174,,[],[],[],[],[],[],[],52,0,52,0,1,,,,,,,,,
,,,,,,,,,,,,,,,,,,test4,2,soar2,a,2020-01-01_12h00.00.000,fingerosc_soar_2025.2.3,2025.2.4,Win32,60.97560976,,,,,,,,,,,,,,,,,,35.5442,35.7436,space,0.1948,,[],[],[],[],[],[],[],53,0,53,0,1,,,,,,,,,
,,,,,,,,,,,,,,,,,,test4,2,soar2,a,2020-01-01_12h00.00.000,fingerosc_soar_2025.2.3,2025.2.4,Win32,60.97560976,,,,,,,,,,,,,,,,,,35.7441,35.927,space,0.1736,,[],[],[],[],[],[],[],54,0,54,0,1,,,,,,,,,
,,,,,,,,,,,,,,,,,,test4,2,soar2,a,2020-01-01_12h00.00.000,fingerosc_soar_2025.2.3,2025.2.4,Win32,60.97560976,,,,,,,,,,,,,,,,,,35.9275,36.1108,space,0.166,,[],[],[],[],[],[],[],55,0,55,0,1,,,,,,,,,
,,,,,,,,,,,,,,,,,,test4,2,soar2,a,2020-01-01_12h00.00.000,fingerosc_soar_2025.2.3,2025.2.4,Win32,60.97560976,,,,,,,,,,,,,,,,,,36.1113,36.2774,space,0.1563,,[],[],[],[],[],[],[],56,0,56,0,1,,,,,,,,,
,,,,,,,,,,,,,,,,,,test4,2,soar2,a,2020-01-01_12h00.00.000,fingerosc_soar_2025.2.3,2025.2.4,Win32,60.97560976,,,,,,,,,,,,,,,,,,36.2777,36.4942,space,0.2005,,[],[],[],[],[],[],[],57,0,57,0,1,,,,,,,,,
,,,,,,,,,,,,,,,,,,test4,2,soar2,a,2020-01-01_12h00.00.000,fingerosc_soar_2025.2.3,2025.2.4,Win32,60.97560976,,,,,,,,,,,,,,,,,,36.4947,36.6774,space,0.1671,,[],[],[],[],[],[],[],58,0,58,0,1,,,,,,,,,
,,,,,,,,,,,,,,,,,,test4,2,soar2,a,2020-01-01_12h00.00.000,fingerosc_soar_2025.2.3,2025.2.4,Win32,60.97560976,,,,,,,,,,,,,,,,,,36.6779,36.877,space,0.1917,,[],[],[],[],[],[],[],59,0,59,0,1,,,,,,,,,
,,,,,,,,,,,,,,,,,,test4,2,soar2,a,2020-01-01_12h00.00.000,fingerosc_soar_2025.2.3,2025.2.4,Win32,60.97560976,,,,,,,,,,,,,,,,,,36.8774,37.0604,space,0.1758,,[],[],[],[],[],[],[],60,0,60,0,1,,,,,,,,,
,,,,,,,,,,,,,,,,,,test4,2,soar2,a,2020-01-01_12h00.00.000,fingerosc_soar_2025.2.3,2025.2.4,Win32,60.97560976,,,,,,,,,,,,,,,,,,37.0609,37.2274,space,0.1602,,[],[],[],[],[],[],[],61,0,61,0,1,,,,,,,,,
,,,,,,,,,,,,,,,,,,test4,2,soar2,a,2020-01-01_12h00.00.000,fingerosc_soar_2025.2.3,2025.2.4,Win32,60.97560976,,,,,,,,,,,,,,,,,,37.228,37.4274,space,0.1862,,[],[],[],[],[],[],[],62,0,62,0,1,,,,,,,,,
,,,,,,,,,,,,,,,,,,test4,2,soar2,a,2020-01-01_12h00.00.000,fingerosc_soar_2025.2.3,2025.2.4,Win32,60.97560976,,,,,,,,,,,,,,,,,,37.428,37.5939,space,0.1506,,[],[],[],[],[],[],[],63,0,63,0,1,,,,,,,,,
,,,,,,,,,,,,,,,,,,test4,2,soar2,a,2020-01-01_12h00.00.000,fingerosc_soar_2025.2.3,2025.2.4,Win32,60.97560976,,,,,,,,,,,,,,,,,,37.5944,37.7439,space,0.1337,,[],[],[],[],[],[],[],64,0,64,0,1,,,,,,,,,
,,,,,,,,,,,,,,,,,,test4,2,soar2,a,2020-01-01_12h00.00.000,fingerosc_soar_2025.2.3,2025.2.4,Win32,60.97560976,,,,,,,,,,,,,,,,,,37.7444,37.8941,space,0.1381,,[],[],[],[],[],[],[],65,0,65,0,1,,,,,,,,,
,,,,,,,,,,,,,,,,,,test4,2,soar2,a,2020-01-01_12h00.00.000,fingerosc_soar_2025.2.3,2025.2.4,Win32,60.97560976,,,,,,,,,,,,,,,,,,37.8946,38.0441,space,0.1347,,[],[],[],[],[],[],[],66,0,66,0,1,,,,,,,,,
,,,,,,,,,,,,,,,,,,test4,2,soar2,a,2020-01-01_12h00.00.000,fingerosc_soar_2025.2.3,2025.2.4,Win32,60.97560976,,,,,,,,,,,,,,,,,,38.0446,38.1936,space,0.1413,,[],[],[],[],[],[],[],67,0,67,0,1,,,,,,,,,
,,,,,,,,,,,,,,,,,,test4,2,soar2,a,2020-01-01_12h00.00.000,fingerosc_soar_2025.2.3,2025.2.4,Win32,60.97560976,,,,,,,,,,,,,,,,,,38.1943,38.3608,space,0.1509,,[],[],[],[],[],[],[],68,0,68,0,1,,,,,,,,,
,,,,,,,,,,,,,,,,,,test4,2,soar2,a,2020-01-01_12h00.00.000,fingerosc_soar_2025.2.3,2025.2.4,Win32,60.97560976,,,,,,,,,,,,,,,,,,38.3611,38.5268,space,0.1539,,[],[],[],[],[],[],[],69,0,69,0,1,,,,,,,,,
,,,,,,,,,,,,,,,,,,test4,2,soar2,a,2020-01-01_12h00.00.000,fingerosc_soar_2025.2.3,2025.2.4,Win32,60.97560976,,,,,,,,,,,,,,,,,,38.5272,38.677,space,0.142,,[],[],[],[],[],[],[],70,0,70,0,1,,,,,,,,,
,,,,,,,,,,,,,,,,,,test4,2,soar2,a,2020-01-01_12h00.00.000,fingerosc_soar_2025.2.3,2025.2.4,Win32,60.97560976,,,,,,,,,,,,,,,,,,38.6774,38.8609,space,0.1674,,[],[],[],[],[],[],[],71,0,71,0,1,,,,,,,,,
,,,,,,,,,,,,,,,,,,test4,2,soar2,a,2020-01-01_12h00.00.000,fingerosc_soar_2025.2.3,2025.2.4,Win32,60.97560976,,,,,,,,,,,,,,,,,,38.8616,39.027,space,0.1501,,[],[],[],[],[],[],[],72,0,72,0,1,,,,,,,,,
,,,,,,,,,,,,,,,,,,test4,2,soar2,a,2020-01-01_12h00.00.000,fingerosc_soar_2025.2.3,2025.2.4,Win32,60.97560976,,,,,,,,,,,,,,,,,,39.0275,39.1768,space,0.1411,,[],[],[],[],[],[],[],73,0,73,0,1,,,,,,,,,
,,,,,,,,,,,,,,,,,,test4,2,soar2,a,2020-01-01_12h00.00.000,fingerosc_soar_2025.2.3,2025.2.4,Win32,60.97560976,,,,,,,,,,,,,,,,,,39.1771,39.3269,space,0.1434,,[],[],[],[],[],[],[],74,0,74,0,1,,,,,,,,,
,,,,,,,,,,,,,,,,,,test4,2,soar2,a,2020-01-01_12h00.00.000,fingerosc_soar_2025.2.3,2025.2.4,Win32,60.97560976,,,,,,,,,,,,,,,,,,39.3274,39.4936,space,0.1603,,[],[],[],[],[],[],[],75,0,75,0,1,,,,,,,,,
,,,,,,,,,,,,,,,,,,test4,2,soar2,a,2020-01-01_12h00.00.000,fingerosc_soar_2025.2.3,2025.2.4,Win32,60.97560976,,,,,,,,,,,,,,,,,,39.4941,39.6769,space,0.1676,,[],[],[],[],[],[],[],76,0,76,0,1,,,,,,,,,
,,,,,,,,,,,,,,,,,,test4,2,soar2,a,2020-01-01_12h00.00.000,fingerosc_soar_2025.2.3,2025.2.4,Win32,60.97560976,,,,,,,,,,,,,,,,,,39.6774,39.8269,space,0.1357,,[],[],[],[],[],[],[],77,0,77,0,1,,,,,,,,,
,,,,,,,,,,,,,,,,,,test4,2,soar2,a,2020-01-01_12h00.00.000,fingerosc_soar_2025.2.3,2025.2.4,Win32,60.97560976,,,,,,,,,,,,,,,,,,39.8275,39.9934,space,0.1539,,[],[],[],[],[],[],[],78,0,78,0,1,,,,,,,,,
,,,,,,,,,,,,,,,,,,test4,2,soar2,a,2020-01-01_12h00.00.000,fingerosc_soar_2025.2.3,2025.2.4,Win32,60.97560976,,,,,,,,,,,,,,,,,,39.9938,40.144,space,0.1448,,[],[],[],[],[],[],[],79,0,79,0,1,,,,,,,,,
,,,,,,,,,,,,,,,,,,test4,2,soar2,a,2020-01-01_12h00.00.000,fingerosc_soar_2025.2.3,2025.2.4,Win32,60.97560976,,,,,,,,,,,,,,,,,,40.1445,40.3106,space,0.1569,,[],[],[],[],[],[],[],80,0,80,0,1,,,,,,,,,
,,,,,,,,,,,,,,,,,,test4,2,soar2,a,2020-01-01_12h00.00.000,fingerosc_soar_2025.2.3,2025.2.4,Win32,60.97560976,,,,,,,,,,,,,,,,,,40.3111,40.4769,space,0.1519,,[],[],[],[],[],[],[],81,0,81,0,1,,,,,,,,,
,,,,,,,,,,,,,,,,,,test4,2,soar2,a,2020-01-01_12h00.00.000,fingerosc_soar_2025.2.3,2025.2.4,Win32,60.97560976,,,,,,,,,,,,,,,,,,40.4772,40.6441,space,0.1522,,[],[],[],[],[],[],[],82,0,82,0,1,,,,,,,,,
,,,,,,,,,,,,,,,,,,test4,2,soar2,a,2020-01-01_12h00.00.000,fingerosc_soar_2025.2.3,2025.2.4,Win32,60.97560976,,,,,,,,,,,,,,,,,,40.6445,40.8101,space,0.1502,,[],[],[],[],[],[],[],83,0,83,0,1,,,,,,,,,
,,,,,,,,,,,,,,,,,,test4,2,soar2,a,2020-01-01_12h00.00.000,fingerosc_soar_2025.2.3,2025.2.4,Win32,60.97560976,,,,,,,,,,,,,,,,,,40.8105,40.977,space,0.1512,,[],[],[],[],[],[],[],84,0,84,0,1,,,,,,,,,
,,,,,,,,,,,,,,,,,,test4,2,soar2,a,2020-01-01_12h00.00.000,fingerosc_soar_2025.2.3,2025.2.4,Win32,60.97560976,,,,,,,,,,,,,,,,,,40.9773,41.1439,space,0.1532,,[],[],[],[],[],[],[],85,0,85,0,1,,,,,,,,,
,,,,,,,,,,,,,,,,,,test4,2,soar2,a,2020-01-01_12h00.00.000,fingerosc_soar_2025.2.3,2025.2.4,Win32,60.97560976,,,,,,,,,,,,,,,,,,41.1442,41.294,space,0.1394,,[],[],[],[],[],[],[],86,0,86,0,1,,,,,,,,,
,,,,,,,,,,,,,,,,,,test4,2,soar2,a,2020-01-01_12h00.00.000,fingerosc_soar_2025.2.3,2025.2.4,Win32,60.97560976,,,,,,,,,,,,,,,,,,41.2945,41.4605,space,0.1511,,[],[],[],[],[],[],[],87,0,87,0,1,,,,,,,,,
,,,,,,,,,,,,,,,,,,test4,2,soar2,a,2020-01-01_12h00.00.000,fingerosc_soar_2025.2.3,2025.2.4,Win32,60.97560976,,,,,,,,,,,,,,,,,,41.4611,41.6106,space,0.145,,[],[],[],[],[],[],[],88,0,88,0,1,,,,,,,,,
,,,,,,,,,,,,,,,,,,test4,2,soar2,a,2020-01-01_12h00.00.000,fingerosc_soar_2025.2.3,2025.2.4,Win32,60.97560976,,,,,,,,,,,,,,,,,,41.611,41.7769,space,0.1491,,[],[],[],[],[],[],[],89,0,89,0,1,,,,,,,,,
,,,,,,,,,,,,,,,,,,test4,2,soar2,a,2020-01-01_12h00.00.000,fingerosc_soar_2025.2.3,2025.2.4,Win32,60.97560976,,,,,,,,,,,,,,,,,,41.7774,41.9268,space,0.1331,,[],[],[],[],[],[],[],90,0,90,0,1,,,,,,,,,
,,,,,,,,,,,,,,,,,,test4,2,soar2,a,2020-01-01_12h00.00.000,fingerosc_soar_2025.2.3,2025.2.4,Win32,60.97560976,,,,,,,,,,,,,,,,,,41.9273,42.0774,space,0.1421,,[],[],[],[],[],[],[],91,0,91,0,1,,,,,,,,,
,,,,,,,,,,,,,,,,,,test4,2,soar2,a,2020-01-01_12h00.00.000,fingerosc_soar_2025.2.3,2025.2.4,Win32,60.97560976,,,,,,,,,,,,,,,,,,42.0779,42.2269,space,0.1438,,[],[],[],[],[],[],[],92,0,92,0,1,,,,,,,,,
,,,,,,,,,,,,,,,,,,test4,2,soar2,a,2020-01-01_12h00.00.000,fingerosc_soar_2025.2.3,2025.2.4,Win32,60.97560976,,,,,,,,,,,,,,,,,,42.2274,42.3771,space,0.135,,[],[],[],[],[],[],[],93,0,93,0,1,,,,,,,,,
,,,,,,,,,,,,,,,,,,test4,2,soar2,a,2020-01-01_12h00.00.000,fingerosc_soar_2025.2.3,2025.2.4,Win32,60.97560976,,,,,,,,,,,,,,,,,,42.3775,42.5101,space,0.1222,,[],[],[],[],[],[],[],94,0,94,0,1,,,,,,,,,
,,,,,,,,,,,,,,,,,,test4,2,soar2,a,2020-01-01_12h00.00.000,fingerosc_soar_2025.2.3,2025.2.4,Win32,60.97560976,,,,,,,,,,,,,,,,,,42.5105,42.6602,space,0.1385,,[],[],[],[],[],[],[],95,0,95,0,1,,,,,,,,,
,,,,,,,,,,,,,,,,,,test4,2,soar2,a,2020-01-01_12h00.00.000,fingerosc_soar_2025.2.3,2025.2.4,Win32,60.97560976,,,,,,,,,,,,,,,,,,42.6605,42.8601,space,0.185,,[],[],[],[],[],[],[],96,0,96,0,1,,,,,,,,,
,,,,,,,,,,,,,,,,,,test4,2,soar2,a,2020-01-01_12h00.00.000,fingerosc_soar_2025.2.3,2025.2.4,Win32,60.97560976,,,,,,,,,,,,,,,,,,42.8607,43.0101,space,0.1335,,[],[],[],[],[],[],[],97,0,97,0,1,,,,,,,,,
,,,,,,,,,,,,,,,,,,test4,2,soar2,a,2020-01-01_12h00.00.000,fingerosc_soar_2025.2.3,2025.2.4,Win32,60.97560976,,,,,,,,,,,,,,,,,,43.0106,43.2103,space,0.185,,[],[],[],[],[],[],[],98,0,98,0,1,,,,,,,,,
,,,,,,,,,,,,,,,,,,test4,2,soar2,a,2020-01-01_12h00.00.000,fingerosc_soar_2025.2.3,2025.2.4,Win32,60.97560976,,,,,,,,,,,,,,,,,,43.2109,43.427,space,0.2,,[],[],[],[],[],[],[],99,0,99,0,1,,,,,,,,,
,,,,,,,,,,,,,,,,,,test4,2,soar2,a,2020-01-01_12h00.00.000,fingerosc_soar_2025.2.3,2025.2.4,Win32,60.97560976,,,,,,,,,,,,,,,,,,43.4273,43.6102,space,0.1742,,[],[],[],[],[],[],[],100,0,100,0,1,,,,,,,,,
,,,,,,,,,,,,,,,,,,test4,2,soar2,a,2020-01-01_12h00.00.000,fingerosc_soar_2025.2.3,2025.2.4,Win32,60.97560976,,,,,,,,,,,,,,,,,,43.6106,43.777,space,0.151,,[],[],[],[],[],[],[],101,0,101,0,1,,,,,,,,,
,,,,,,,,,,,,,,,,,,test4,2,soar2,a,2020-01-01_12h00.00.000,fingerosc_soar_2025.2.3,2025.2.4,Win32,60.97560976,,,,,,,,,,,,,,,,,,43.7773,43.9599,space,0.1765,,[],[],[],[],[],[],[],102,0,102,0,1,,,,,,,,,
,,,,,,,,,,,,,,,,,,test4,2,soar2,a,2020-01-01_12h00.00.000,fingerosc_soar_2025.2.3,2025.2.4,Win32,60.97560976,,,,,,,,,,,,,,,,,,43.9603,44.1434,space,0.1754,,[],[],[],[],[],[],[],103,0,103,0,1,,,,,,,,,
,,,,,,,,,,,,,,,,,,test4,2,soar2,a,2020-01-01_12h00.00.000,fingerosc_soar_2025.2.3,2025.2.4,Win32,60.97560976,,,,,,,,,,,,,,,,,,44.1437,44.3267,space,0.1667,,[],[],[],[],[],[],[],104,0,104,0,1,,,,,,,,,
,,,,,,,,,,,,,,,,,,test4,2,soar2,a,2020-01-01_12h00.00.000,fingerosc_soar_2025.2.3,2025.2.4,Win32,60.97560976,,,,,,,,,,,,,,,,,,44.3271,44.4772,space,0.1451,,[],[],[],[],[],[],[],105,0,105,0,1,,,,,,,,,
,,,,,,,,,,,,,,,,,,test4,2,soar2,a,2020-01-01_12h00.00.000,fingerosc_soar_2025.2.3,2025.2.4,Win32,60.97560976,,,,,,,,,,,,,,,,,,44.4777,44.6435,space,0.1498,,[],[],[],[],[],[],[],106,0,106,0,1,,,,,,,,,
,,,,,,,,,,,,,,,,,,test4,2,soar2,a,2020-01-01_12h00.00.000,fingerosc_soar_2025.2.3,2025.2.4,Win32,60.97560976,,,,,,,,,,,,,,,,,,44.6439,44.8104,space,0.1502,,[],[],[],[],[],[],[],107,0,107,0,1,,,,,,,,,
,,,,,,,,,,,,,,,,,,test4,2,soar2,a,2020-01-01_12h00.00.000,fingerosc_soar_2025.2.3,2025.2.4,Win32,60.97560976,,,,,,,,,,,,,,,,,,44.8109,44.9766,space,0.1608,,[],[],[],[],[],[],[],108,0,108,0,1,,,,,,,,,
,,,,,,,,,,,,,,,,,,test4,2,soar2,a,2020-01-01_12h00.00.000,fingerosc_soar_2025.2.3,2025.2.4,Win32,60.97560976,,,,,,,,,,,,,,,,,,44.977,45.1271,space,0.1422,,[],[],[],[],[],[],[],109,0,109,0,1,,,,,,,,,
,,,,,,,,,,,,,,,,,,test4,2,soar2,a,2020-01-01_12h00.00.000,fingerosc_soar_2025.2.3,2025.2.4,Win32,60.97560976,,,,,,,,,,,,,,,,,,45.1274,45.2937,space,0.1497,,[],[],[],[],[],[],[],110,0,110,0,1,,,,,,,,,
,,,,,,,,,,,,,,,,,,test4,2,soar2,a,2020-01-01_12h00.00.000,fingerosc_soar_2025.2.3,2025.2.4,Win32,60.97560976,,,,,,,,,,,,,,,,,,45.294,45.4436,space,0.1421,,[],[],[],[],[],[],[],111,0,111,0,1,,,,,,,,,
,,,,,,,,,,,,,,,,,,test4,2,soar2,a,2020-01-01_12h00.00.000,fingerosc_soar_2025.2.3,2025.2.4,Win32,60.97560976,,,,,,,,,,,,,,,,,,45.4441,45.6103,space,0.1563,,[],[],[],[],[],[],[],112,0,112,0,1,,,,,,,,,
,,,,,,,,,,,,,,,,,,test4,2,soar2,a,2020-01-01_12h00.00.000,fingerosc_soar_2025.2.3,2025.2.4,Win32,60.97560976,,,,,,,,,,,,,,,,,,45.6107,45.777,space,0.1572,,[],[],[],[],[],[],[],113,0,113,0,1,,,,,,,,,
,,,,,,,,,,,,,,,,,,test4,2,soar2,a,2020-01-01_12h00.00.000,fingerosc_soar_2025.2.3,2025.2.4,Win32,60.97560976,,,,,,,,,,,,,,,,,,45.7774,45.9267,space,0.1438,,[],[],[],[],[],[],[],114,0,114,0,1,,,,,,,,,
,,,,,,,,,,,,,,,,,,test4,2,soar2,a,2020-01-01_12h00.00.000,fingerosc_soar_2025.2.3,2025.2.4,Win32,60.97560976,,,,,,,,,,,,,,,,,,45.9271,46.0932,space,0.153,,[],[],[],[],[],[],[],115,0,115,0,1,,,,,,,,,
,,,,,,,,,,,,,,,,,,test4,2,soar2,a,2020-01-01_12h00.00.000,fingerosc_soar_2025.2.3,2025.2.4,Win32,60.97560976,,,,,,,,,,,,,,,,,,46.0936,46.2432,space,0.1409,,[],[],[],[],[],[],[],116,0,116,0,1,,,,,,,,,
,,,,,,,,,,,,,,,,,,test4,2,soar2,a,2020-01-01_12h00.00.000,fingerosc_soar_2025.2.3,2025.2.4,Win32,60.97560976,,,,,,,,,,,,,,,,,,46.2437,46.4101,space,0.1491,,[],[],[],[],[],[],[],117,0,117,0,1,,,,,,,,,
,,,,,,,,,,,,,,,,,,test4,2,soar2,a,2020-01-01_12h00.00.000,fingerosc_soar_2025.2.3,2025.2.4,Win32,60.97560976,,,,,,,,,,,,,,,,,,46.4106,46.5604,space,0.1378,,[],[],[],[],[],[],[],118,0,118,0,1,,,,,,,,,
,,,,,,,,,,,,,,,,,,test4,2,soar2,a,2020-01-01_12h00.00.000,fingerosc_soar_2025.2.3,2025.2.4,Win32,60.97560976,,,,,,,,,,,,,,,,,,46.5608,46.71,space,0.14,,[],[],[],[],[],[],[],119,0,119,0,1,,,,,,,,,
,,,,,,,,,,,,,,,,,,test4,2,soar2,a,2020-01-01_12h00.00.000,fingerosc_soar_2025.2.3,2025.2.4,Win32,60.97560976,,,,,,,,,,,,,,,,,,46.7105,46.8604,space,0.1427,,[],[],[],[],[],[],[],120,0,120,0,1,,,,,,,,,
,,,,,,,,,,,,,,,,,,test4,2,soar2,a,2020-01-01_12h00.00.000,fingerosc_soar_2025.2.3,2025.2.4,Win32,60.97560976,,,,,,,,,,,,,,,,,,46.861,47.0264,space,0.1541,,[],[],[],[],[],[],[],121,0,121,0,1,,,,,,,,,
,,,,,,,,,,,,,,,,,,test4,2,soar2,a,2020-01-01_12h00.00.000,fingerosc_soar_2025.2.3,2025.2.4,Win32,60.97560976,,,,,,,,,,,,,,,,,,47.027,47.2103,space,0.166,,[],[],[],[],[],[],[],122,0,122,0,1,,,,,,,,,
,,,,,,,,,,,,,,,,,,test4,2,soar2,a,2020-01-01_12h00.00.000,fingerosc_soar_2025.2.3,2025.2.4,Win32,60.97560976,,,,,,,,,,,,,,,,,,47.211,47.3766,space,0.1497,,[],[],[],[],[],[],[],123,0,123,0,1,,,,,,,,,
,,,,,,,,,,,,,,,,,,test4,2,soar2,a,2020-01-01_12h00.00.000,fingerosc_soar_2025.2.3,2025.2.4,Win32,60.97560976,,,,,,,,,,,,,,,,,,47.377,47.5438,space,0.1507,,[],[],[],[],[],[],[],124,0,124,0,1,,,,,,,,,
,,,,,,,,,,,,,,,,,,test4,2,soar2,a,2020-01-01_12h00.00.000,fingerosc_soar_2025.2.3,2025.2.4,Win32,60.97560976,,,,,,,,,,,,,,,,,,47.5443,47.6936,space,0.1393,,[],[],[],[],[],[],[],125,0,125,0,1,,,,,,,,,
,,,,,,,,,,,,,,,,,,test4,2,soar2,a,2020-01-01_12h00.00.000,fingerosc_soar_2025.2.3,2025.2.4,Win32,60.97560976,,,,,,,,,,,,,,,,,,47.694,47.86,space,0.1543,,[],[],[],[],[],[],[],126,0,126,0,1,,,,,,,,,
,,,,,,,,,,,,,,,,,,test4,2,soar2,a,2020-01-01_12h00.00.000,fingerosc_soar_2025.2.3,2025.2.4,Win32,60.97560976,,,,,,,,,,,,,,,,,,47.8604,48.0271,space,0.1579,,[],[],[],[],[],[],[],127,0,127,0,1,,,,,,,,,
,,,,,,,,,,,,,,,,,,test4,2,soar2,a,2020-01-01_12h00.00.000,fingerosc_soar_2025.2.3,2025.2.4,Win32,60.97560976,,,,,,,,,,,,,,,,,,48.0278,48.1931,space,0.16,,[],[],[],[],[],[],[],128,0,128,0,1,,,,,,,,,
,,,,,,,,,,,,,,,,,,test4,2,soar2,a,2020-01-01_12h00.00.000,fingerosc_soar_2025.2.3,2025.2.4,Win32,60.97560976,,,,,,,,,,,,,,,,,,48.1935,48.3598,space,0.1618,,[],[],[],[],[],[],[],129,0,129,0,1,,,,,,,,,
,,,,,,,,,,,,,,,,,,test4,2,soar2,a,2020-01-01_12h00.00.000,fingerosc_soar_2025.2.3,2025.2.4,Win32,60.97560976,,,,,,,,,,,,,,,,,,48.3602,48.5433,space,0.1766,,[],[],[],[],[],[],[],130,0,130,0,1,,,,,,,,,
,,,,,,,,,,,,,,,,,,test4,2,soar2,a,2020-01-01_12h00.00.000,fingerosc_soar_2025.2.3,2025.2.4,Win32,60.97560976,,,,,,,,,,,,,,,,,,48.5438,48.7268,space,0.1682,,[],[],[],[],[],[],[],131,0,131,0,1,,,,,,,,,
,,,,,,,,,,,,,,,,,,test4,2,soar2,a,2020-01-01_12h00.00.000,fingerosc_soar_2025.2.3,2025.2.4,Win32,60.97560976,,,,,,,,,,,,,,,,,,48.7272,48.8934,space,0.1565,,[],[],[],[],[],[],[],132,0,132,0,1,,,,,,,,,
,,,,,,,,,,,,,,,,,,test4,2,soar2,a,2020-01-01_12h00.00.000,fingerosc_soar_2025.2.3,2025.2.4,Win32,60.97560976,,,,,,,,,,,,,,,,,,48.8938,49.0602,space,0.1588,,[],[],[],[],[],[],[],133,0,133,0,1,,,,,,,,,
,,,,,,,,,,,,,,,,,,test4,2,soar2,a,2020-01-01_12h00.00.000,fingerosc_soar_2025.2.3,2025.2.4,Win32,60.97560976,,,,,,,,,,,,,,,,,,49.0606,49.2268,space,0.15,,[],[],[],[],[],[],[],134,0,134,0,1,,,,,,,,,
,,,,,,,,,,,,,,,,,,test4,2,soar2,a,2020-01-01_12h00.00.000,fingerosc_soar_2025.2.3,2025.2.4,Win32,60.97560976,,,,,,,,,,,,,,,,,,49.2273,49.3767,space,0.1447,,[],[],[],[],[],[],[],135,0,135,0,1,,,,,,,,,
,,,,,,,,,,,,,,,,,,test4,2,soar2,a,2020-01-01_12h00.00.000,fingerosc_soar_2025.2.3,2025.2.4,Win32,60.97560976,,,,,,,,,,,,,,,,,,49.3772,49.5434,space,0.1543,,[],[],[],[],[],[],[],136,0,136,0,1,,,,,,,,,
,,,,,,,,,,,,,,,,,,test4,2,soar2,a,2020-01-01_12h00.00.000,fingerosc_soar_2025.2.3,2025.2.4,Win32,60.97560976,,,,,,,,,,,,,,,,,,49.5438,49.7102,space,0.152,,[],[],[],[],[],[],[],137,0,137,0,1,,,,,,,,,
,,,,,,,,,,,,,,,,,,test4,2,soar2,a,2020-01-01_12h00.00.000,fingerosc_soar_2025.2.3,2025.2.4,Win32,60.97560976,,,,,,,,,,,,,,,,,,49.7106,49.8768,space,0.1531,,[],[],[],[],[],[],[],138,0,138,0,1,,,,,,,,,
,,,,,,,,,,,,,,,,,,test4,2,soar2,a,2020-01-01_12h00.00.000,fingerosc_soar_2025.2.3,2025.2.4,Win32,60.97560976,,,,,,,,,,,,,,,,,,49.8771,50.0435,space,0.1586,,[],[],[],[],[],[],[],139,0,139,0,1,,,,,,,,,
,,,,,,,,,,,,,,,,,,test4,2,soar2,a,2020-01-01_12h00.00.000,fingerosc_soar_2025.2.3,2025.2.4,Win32,60.97560976,,,,,,,,,,,,,,,,,,50.0439,50.2268,space,0.171,,[],[],[],[],[],[],[],140,0,140,0,1,,,,,,,,,
,,,,,,,,,,,,,,,,,,test4,2,soar2,a,2020-01-01_12h00.00.000,fingerosc_soar_2025.2.3,2025.2.4,Win32,60.97560976,,,,,,,,,,,,,,,,,,50.2273,50.3935,space,0.1506,,[],[],[],[],[],[],[],141,0,141,0,1,,,,,,,,,
,,,,,,,,,,,,,,,,,,test4,2,soar2,a,2020-01-01_12h00.00.000,fingerosc_soar_2025.2.3,2025.2.4,Win32,60.97560976,,,,,,,,,,,,,,,,,,50.3938,50.56,space,0.1511,,[],[],[],[],[],[],[],142,0,142,0,1,,,,,,,,,
,,,,,,,,,,,,,,,,,,test4,2,soar2,a,2020-01-01_12h00.00.000,fingerosc_soar_2025.2.3,2025.2.4,Win32,60.97560976,,,,,,,,,,,,,,,,,,,,,,,,,,,,,,,,,,,50.5607,53.5598,0,0,0,0,1,,
,,,,,,,,,,,,,,,,,,test4,2,soar2,a,2020-01-01_12h00.00.000,fingerosc_soar_2025.2.3,2025.2.4,Win32,60.97560976,,,,,53.5641,61.8428,space,7.75,,[],[],[],[],[],[],61.8429,66.8427,66.8443,67.8094,space,0.9504,,[],[],[],[],[],[],[],0,0,0,0,1,,,,,,,,,
,,,,,,,,,,,,,,,,,,test4,2,soar2,a,2020-01-01_12h00.00.000,fingerosc_soar_2025.2.3,2025.2.4,Win32,60.97560976,,,,,,,,,,,,,,,,,,67.8099,68.0092,space,0.1881,,[],[],[],[],[],[],[],1,0,1,0,1,,,,,,,,,
,,,,,,,,,,,,,,,,,,test4,2,soar2,a,2020-01-01_12h00.00.000,fingerosc_soar_2025.2.3,2025.2.4,Win32,60.97560976,,,,,,,,,,,,,,,,,,68.0096,68.1927,space,0.1688,,[],[],[],[],[],[],[],2,0,2,0,1,,,,,,,,,
,,,,,,,,,,,,,,,,,,test4,2,soar2,a,2020-01-01_12h00.00.000,fingerosc_soar_2025.2.3,2025.2.4,Win32,60.97560976,,,,,,,,,,,,,,,,,,68.1931,68.5929,space,0.3824,,[],[],[],[],[],[],[],3,0,3,0,1,,,,,,,,,
,,,,,,,,,,,,,,,,,,test4,2,soar2,a,2020-01-01_12h00.00.000,fingerosc_soar_2025.2.3,2025.2.4,Win32,60.97560976,,,,,,,,,,,,,,,,,,68.5933,68.7761,space,0.1669,,[],[],[],[],[],[],[],4,0,4,0,1,,,,,,,,,
,,,,,,,,,,,,,,,,,,test4,2,soar2,a,2020-01-01_12h00.00.000,fingerosc_soar_2025.2.3,2025.2.4,Win32,60.97560976,,,,,,,,,,,,,,,,,,68.7765,68.9759,space,0.1847,,[],[],[],[],[],[],[],5,0,5,0,1,,,,,,,,,
,,,,,,,,,,,,,,,,,,test4,2,soar2,a,2020-01-01_12h00.00.000,fingerosc_soar_2025.2.3,2025.2.4,Win32,60.97560976,,,,,,,,,,,,,,,,,,68.9762,69.3092,space,0.3209,,[],[],[],[],[],[],[],6,0,6,0,1,,,,,,,,,
,,,,,,,,,,,,,,,,,,test4,2,soar2,a,2020-01-01_12h00.00.000,fingerosc_soar_2025.2.3,2025.2.4,Win32,60.97560976,,,,,,,,,,,,,,,,,,69.3096,69.4591,space,0.1319,,[],[],[],[],[],[],[],7,0,7,0,1,,,,,,,,,
,,,,,,,,,,,,,,,,,,test4,2,soar2,a,2020-01-01_12h00.00.000,fingerosc_soar_2025.2.3,2025.2.4,Win32,60.97560976,,,,,,,,,,,,,,,,,,69.4595,69.6754,space,0.1981,,[],[],[],[],[],[],[],8,0,8,0,1,,,,,,,,,
,,,,,,,,,,,,,,,,,,test4,2,soar2,a,2020-01-01_12h00.00.000,fingerosc_soar_2025.2.3,2025.2.4,Win32,60.97560976,,,,,,,,,,,,,,,,,,69.6758,69.8593,space,0.1743,,[],[],[],[],[],[],[],9,0,9,0,1,,,,,,,,,
,,,,,,,,,,,,,,,,,,test4,2,soar2,a,2020-01-01_12h00.00.000,fingerosc_soar_2025.2.3,2025.2.4,Win32,60.97560976,,,,,,,,,,,,,,,,,,69.8597,70.2089,space,0.3329,,[],[],[],[],[],[],[],10,0,10,0,1,,,,,,,,,
,,,,,,,,,,,,,,,,,,test4,2,soar2,a,2020-01-01_12h00.00.000,fingerosc_soar_2025.2.3,2025.2.4,Win32,60.97560976,,,,,,,,,,,,,,,,,,70.2094,70.4259,space,0.1988,,[],[],[],[],[],[],[],11,0,11,0,1,,,,,,,,,
,,,,,,,,,,,,,,,,,,test4,2,soar2,a,2020-01-01_12h00.00.000,fingerosc_soar_2025.2.3,2025.2.4,Win32,60.97560976,,,,,,,,,,,,,,,,,,70.4263,70.6252,space,0.1933,,[],[],[],[],[],[],[],12,0,12,0,1,,,,,,,,,
,,,,,,,,,,,,,,,,,,test4,2,soar2,a,2020-01-01_12h00.00.000,fingerosc_soar_2025.2.3,2025.2.4,Win32,60.97560976,,,,,,,,,,,,,,,,,,70.6257,70.7756,space,0.1433,,[],[],[],[],[],[],[],13,0,13,0,1,,,,,,,,,
,,,,,,,,,,,,,,,,,,test4,2,soar2,a,2020-01-01_12h00.00.000,fingerosc_soar_2025.2.3,2025.2.4,Win32,60.97560976,,,,,,,,,,,,,,,,,,70.7759,70.9752,space,0.1864,,[],[],[],[],[],[],[],14,0,14,0,1,,,,,,,,,
,,,,,,,,,,,,,,,,,,test4,2,soar2,a,2020-01-01_12h00.00.000,fingerosc_soar_2025.2.3,2025.2.4,Win32,60.97560976,,,,,,,,,,,,,,,,,,70.9757,71.1421,space,0.1486,,[],[],[],[],[],[],[],15,0,15,0,1,,,,,,,,,
,,,,,,,,,,,,,,,,,,test4,2,soar2,a,2020-01-01_12h00.00.000,fingerosc_soar_2025.2.3,2025.2.4,Win32,60.97560976,,,,,,,,,,,,,,,,,,71.1426,71.3258,space,0.1629,,[],[],[],[],[],[],[],16,0,16,0,1,,,,,,,,,
,,,,,,,,,,,,,,,,,,test4,2,soar2,a,2020-01-01_12h00.00.000,fingerosc_soar_2025.2.3,2025.2.4,Win32,60.97560976,,,,,,,,,,,,,,,,,,71.3263,71.5424,space,0.2002,,[],[],[],[],[],[],[],17,0,17,0,1,,,,,,,,,
,,,,,,,,,,,,,,,,,,test4,2,soar2,a,2020-01-01_12h00.00.000,fingerosc_soar_2025.2.3,2025.2.4,Win32,60.97560976,,,,,,,,,,,,,,,,,,71.5429,71.7591,space,0.1974,,[],[],[],[],[],[],[],18,0,18,0,1,,,,,,,,,
,,,,,,,,,,,,,,,,,,test4,2,soar2,a,2020-01-01_12h00.00.000,fingerosc_soar_2025.2.3,2025.2.4,Win32,60.97560976,,,,,,,,,,,,,,,,,,71.7595,71.9423,space,0.1665,,[],[],[],[],[],[],[],19,0,19,0,1,,,,,,,,,
,,,,,,,,,,,,,,,,,,test4,2,soar2,a,2020-01-01_12h00.00.000,fingerosc_soar_2025.2.3,2025.2.4,Win32,60.97560976,,,,,,,,,,,,,,,,,,71.9427,72.1258,space,0.1672,,[],[],[],[],[],[],[],20,0,20,0,1,,,,,,,,,
,,,,,,,,,,,,,,,,,,test4,2,soar2,a,2020-01-01_12h00.00.000,fingerosc_soar_2025.2.3,2025.2.4,Win32,60.97560976,,,,,,,,,,,,,,,,,,72.1262,72.3091,space,0.1645,,[],[],[],[],[],[],[],21,0,21,0,1,,,,,,,,,
,,,,,,,,,,,,,,,,,,test4,2,soar2,a,2020-01-01_12h00.00.000,fingerosc_soar_2025.2.3,2025.2.4,Win32,60.97560976,,,,,,,,,,,,,,,,,,72.3095,72.4759,space,0.1539,,[],[],[],[],[],[],[],22,0,22,0,1,,,,,,,,,
,,,,,,,,,,,,,,,,,,test4,2,soar2,a,2020-01-01_12h00.00.000,fingerosc_soar_2025.2.3,2025.2.4,Win32,60.97560976,,,,,,,,,,,,,,,,,,72.4763,72.6423,space,0.1487,,[],[],[],[],[],[],[],23,0,23,0,1,,,,,,,,,
,,,,,,,,,,,,,,,,,,test4,2,soar2,a,2020-01-01_12h00.00.000,fingerosc_soar_2025.2.3,2025.2.4,Win32,60.97560976,,,,,,,,,,,,,,,,,,72.6429,72.8089,space,0.1535,,[],[],[],[],[],[],[],24,0,24,0,1,,,,,,,,,
,,,,,,,,,,,,,,,,,,test4,2,soar2,a,2020-01-01_12h00.00.000,fingerosc_soar_2025.2.3,2025.2.4,Win32,60.97560976,,,,,,,,,,,,,,,,,,72.8094,72.9923,space,0.1645,,[],[],[],[],[],[],[],25,0,25,0,1,,,,,,,,,
,,,,,,,,,,,,,,,,,,test4,2,soar2,a,2020-01-01_12h00.00.000,fingerosc_soar_2025.2.3,2025.2.4,Win32,60.97560976,,,,,,,,,,,,,,,,,,72.9927,73.3591,space,0.3497,,[],[],[],[],[],[],[],26,0,26,0,1,,,,,,,,,
,,,,,,,,,,,,,,,,,,test4,2,soar2,a,2020-01-01_12h00.00.000,fingerosc_soar_2025.2.3,2025.2.4,Win32,60.97560976,,,,,,,,,,,,,,,,,,73.3595,73.5921,space,0.2158,,[],[],[],[],[],[],[],27,0,27,0,1,,,,,,,,,
,,,,,,,,,,,,,,,,,,test4,2,soar2,a,2020-01-01_12h00.00.000,fingerosc_soar_2025.2.3,2025.2.4,Win32,60.97560976,,,,,,,,,,,,,,,,,,73.5926,73.8089,space,0.1968,,[],[],[],[],[],[],[],28,0,28,0,1,,,,,,,,,
,,,,,,,,,,,,,,,,,,test4,2,soar2,a,2020-01-01_12h00.00.000,fingerosc_soar_2025.2.3,2025.2.4,Win32,60.97560976,,,,,,,,,,,,,,,,,,73.8094,74.009,space,0.1831,,[],[],[],[],[],[],[],29,0,29,0,1,,,,,,,,,
,,,,,,,,,,,,,,,,,,test4,2,soar2,a,2020-01-01_12h00.00.000,fingerosc_soar_2025.2.3,2025.2.4,Win32,60.97560976,,,,,,,,,,,,,,,,,,74.0094,74.2089,space,0.1822,,[],[],[],[],[],[],[],30,0,30,0,1,,,,,,,,,
,,,,,,,,,,,,,,,,,,test4,2,soar2,a,2020-01-01_12h00.00.000,fingerosc_soar_2025.2.3,2025.2.4,Win32,60.97560976,,,,,,,,,,,,,,,,,,74.2094,74.4089,space,0.182,,[],[],[],[],[],[],[],31,0,31,0,1,,,,,,,,,
,,,,,,,,,,,,,,,,,,test4,2,soar2,a,2020-01-01_12h00.00.000,fingerosc_soar_2025.2.3,2025.2.4,Win32,60.97560976,,,,,,,,,,,,,,,,,,74.4094,74.5922,space,0.1724,,[],[],[],[],[],[],[],32,0,32,0,1,,,,,,,,,
,,,,,,,,,,,,,,,,,,test4,2,soar2,a,2020-01-01_12h00.00.000,fingerosc_soar_2025.2.3,2025.2.4,Win32,60.97560976,,,,,,,,,,,,,,,,,,74.5926,74.792,space,0.1825,,[],[],[],[],[],[],[],33,0,33,0,1,,,,,,,,,
,,,,,,,,,,,,,,,,,,test4,2,soar2,a,2020-01-01_12h00.00.000,fingerosc_soar_2025.2.3,2025.2.4,Win32,60.97560976,,,,,,,,,,,,,,,,,,74.7925,74.9587,space,0.155,,[],[],[],[],[],[],[],34,0,34,0,1,,,,,,,,,
,,,,,,,,,,,,,,,,,,test4,2,soar2,a,2020-01-01_12h00.00.000,fingerosc_soar_2025.2.3,2025.2.4,Win32,60.97560976,,,,,,,,,,,,,,,,,,74.9592,75.1419,space,0.1726,,[],[],[],[],[],[],[],35,0,35,0,1,,,,,,,,,
,,,,,,,,,,,,,,,,,,test4,2,soar2,a,2020-01-01_12h00.00.000,fingerosc_soar_2025.2.3,2025.2.4,Win32,60.97560976,,,,,,,,,,,,,,,,,,75.1422,75.359,space,0.1988,,[],[],[],[],[],[],[],36,0,36,0,1,,,,,,,,,
,,,,,,,,,,,,,,,,,,test4,2,soar2,a,2020-01-01_12h00.00.000,fingerosc_soar_2025.2.3,2025.2.4,Win32,60.97560976,,,,,,,,,,,,,,,,,,75.3594,75.5421,space,0.1643,,[],[],[],[],[],[],[],37,0,37,0,1,,,,,,,,,
,,,,,,,,,,,,,,,,,,test4,2,soar2,a,2020-01-01_12h00.00.000,fingerosc_soar_2025.2.3,2025.2.4,Win32,60.97560976,,,,,,,,,,,,,,,,,,75.5425,75.7417,space,0.1865,,[],[],[],[],[],[],[],38,0,38,0,1,,,,,,,,,
,,,,,,,,,,,,,,,,,,test4,2,soar2,a,2020-01-01_12h00.00.000,fingerosc_soar_2025.2.3,2025.2.4,Win32,60.97560976,,,,,,,,,,,,,,,,,,75.7421,75.925,space,0.1658,,[],[],[],[],[],[],[],39,0,39,0,1,,,,,,,,,
,,,,,,,,,,,,,,,,,,test4,2,soar2,a,2020-01-01_12h00.00.000,fingerosc_soar_2025.2.3,2025.2.4,Win32,60.97560976,,,,,,,,,,,,,,,,,,75.9255,76.1084,space,0.1746,,[],[],[],[],[],[],[],40,0,40,0,1,,,,,,,,,
,,,,,,,,,,,,,,,,,,test4,2,soar2,a,2020-01-01_12h00.00.000,fingerosc_soar_2025.2.3,2025.2.4,Win32,60.97560976,,,,,,,,,,,,,,,,,,76.1088,76.3089,space,0.1831,,[],[],[],[],[],[],[],41,0,41,0,1,,,,,,,,,
,,,,,,,,,,,,,,,,,,test4,2,soar2,a,2020-01-01_12h00.00.000,fingerosc_soar_2025.2.3,2025.2.4,Win32,60.97560976,,,,,,,,,,,,,,,,,,76.3093,76.5923,space,0.2669,,[],[],[],[],[],[],[],42,0,42,0,1,,,,,,,,,
,,,,,,,,,,,,,,,,,,test4,2,soar2,a,2020-01-01_12h00.00.000,fingerosc_soar_2025.2.3,2025.2.4,Win32,60.97560976,,,,,,,,,,,,,,,,,,76.5928,76.8586,space,0.2506,,[],[],[],[],[],[],[],43,0,43,0,1,,,,,,,,,
,,,,,,,,,,,,,,,,,,test4,2,soar2,a,2020-01-01_12h00.00.000,fingerosc_soar_2025.2.3,2025.2.4,Win32,60.97560976,,,,,,,,,,,,,,,,,,76.8592,77.059,space,0.1813,,[],[],[],[],[],[],[],44,0,44,0,1,,,,,,,,,
,,,,,,,,,,,,,,,,,,test4,2,soar2,a,2020-01-01_12h00.00.000,fingerosc_soar_2025.2.3,2025.2.4,Win32,60.97560976,,,,,,,,,,,,,,,,,,77.0595,77.2587,space,0.1798,,[],[],[],[],[],[],[],45,0,45,0,1,,,,,,,,,
,,,,,,,,,,,,,,,,,,test4,2,soar2,a,2020-01-01_12h00.00.000,fingerosc_soar_2025.2.3,2025.2.4,Win32,60.97560976,,,,,,,,,,,,,,,,,,77.2592,77.4755,space,0.1991,,[],[],[],[],[],[],[],46,0,46,0,1,,,,,,,,,
,,,,,,,,,,,,,,,,,,test4,2,soar2,a,2020-01-01_12h00.00.000,fingerosc_soar_2025.2.3,2025.2.4,Win32,60.97560976,,,,,,,,,,,,,,,,,,77.476,77.6584,space,0.1673,,[],[],[],[],[],[],[],47,0,47,0,1,,,,,,,,,
,,,,,,,,,,,,,,,,,,test4,2,soar2,a,2020-01-01_12h00.00.000,fingerosc_soar_2025.2.3,2025.2.4,Win32,60.97560976,,,,,,,,,,,,,,,,,,77.6587,77.8755,space,0.199,,[],[],[],[],[],[],[],48,0,48,0,1,,,,,,,,,
,,,,,,,,,,,,,,,,,,test4,2,soar2,a,2020-01-01_12h00.00.000,fingerosc_soar_2025.2.3,2025.2.4,Win32,60.97560976,,,,,,,,,,,,,,,,,,77.876,78.0589,space,0.1684,,[],[],[],[],[],[],[],49,0,49,0,1,,,,,,,,,
,,,,,,,,,,,,,,,,,,test4,2,soar2,a,2020-01-01_12h00.00.000,fingerosc_soar_2025.2.3,2025.2.4,Win32,60.97560976,,,,,,,,,,,,,,,,,,78.0593,78.2584,space,0.1843,,[],[],[],[],[],[],[],50,0,50,0,1,,,,,,,,,
,,,,,,,,,,,,,,,,,,test4,2,soar2,a,2020-01-01_12h00.00.000,fingerosc_soar_2025.2.3,2025.2.4,Win32,60.97560976,,,,,,,,,,,,,,,,,,78.2589,78.4754,space,0.1972,,[],[],[],[],[],[],[],51,0,51,0,1,,,,,,,,,
,,,,,,,,,,,,,,,,,,test4,2,soar2,a,2020-01-01_12h00.00.000,fingerosc_soar_2025.2.3,2025.2.4,Win32,60.97560976,,,,,,,,,,,,,,,,,,78.4759,78.6922,space,0.2048,,[],[],[],[],[],[],[],52,0,52,0,1,,,,,,,,,
,,,,,,,,,,,,,,,,,,test4,2,soar2,a,2020-01-01_12h00.00.000,fingerosc_soar_2025.2.3,2025.2.4,Win32,60.97560976,,,,,,,,,,,,,,,,,,78.6926,78.9085,space,0.2076,,[],[],[],[],[],[],[],53,0,53,0,1,,,,,,,,,
,,,,,,,,,,,,,,,,,,test4,2,soar2,a,2020-01-01_12h00.00.000,fingerosc_soar_2025.2.3,2025.2.4,Win32,60.97560976,,,,,,,,,,,,,,,,,,78.909,79.1253,space,0.1972,,[],[],[],[],[],[],[],54,0,54,0,1,,,,,,,,,
,,,,,,,,,,,,,,,,,,test4,2,soar2,a,2020-01-01_12h00.00.000,fingerosc_soar_2025.2.3,2025.2.4,Win32,60.97560976,,,,,,,,,,,,,,,,,,79.1258,79.3248,space,0.1925,,[],[],[],[],[],[],[],55,0,55,0,1,,,,,,,,,
,,,,,,,,,,,,,,,,,,test4,2,soar2,a,2020-01-01_12h00.00.000,fingerosc_soar_2025.2.3,2025.2.4,Win32,60.97560976,,,,,,,,,,,,,,,,,,79.3253,79.5254,space,0.1889,,[],[],[],[],[],[],[],56,0,56,0,1,,,,,,,,,
,,,,,,,,,,,,,,,,,,test4,2,soar2,a,2020-01-01_12h00.00.000,fingerosc_soar_2025.2.3,2025.2.4,Win32,60.97560976,,,,,,,,,,,,,,,,,,79.5257,79.7254,space,0.1827,,[],[],[],[],[],[],[],57,0,57,0,1,,,,,,,,,
,,,,,,,,,,,,,,,,,,test4,2,soar2,a,2020-01-01_12h00.00.000,fingerosc_soar_2025.2.3,2025.2.4,Win32,60.97560976,,,,,,,,,,,,,,,,,,79.7258,79.9087,space,0.1715,,[],[],[],[],[],[],[],58,0,58,0,1,,,,,,,,,
,,,,,,,,,,,,,,,,,,test4,2,soar2,a,2020-01-01_12h00.00.000,fingerosc_soar_2025.2.3,2025.2.4,Win32,60.97560976,,,,,,,,,,,,,,,,,,79.9091,80.1254,space,0.2027,,[],[],[],[],[],[],[],59,0,59,0,1,,,,,,,,,
,,,,,,,,,,,,,,,,,,test4,2,soar2,a,2020-01-01_12h00.00.000,fingerosc_soar_2025.2.3,2025.2.4,Win32,60.97560976,,,,,,,,,,,,,,,,,,80.1258,80.3587,space,0.2187,,[],[],[],[],[],[],[],60,0,60,0,1,,,,,,,,,
,,,,,,,,,,,,,,,,,,test4,2,soar2,a,2020-01-01_12h00.00.000,fingerosc_soar_2025.2.3,2025.2.4,Win32,60.97560976,,,,,,,,,,,,,,,,,,80.3592,80.5586,space,0.1826,,[],[],[],[],[],[],[],61,0,61,0,1,,,,,,,,,
,,,,,,,,,,,,,,,,,,test4,2,soar2,a,2020-01-01_12h00.00.000,fingerosc_soar_2025.2.3,2025.2.4,Win32,60.97560976,,,,,,,,,,,,,,,,,,80.559,80.7587,space,0.1862,,[],[],[],[],[],[],[],62,0,62,0,1,,,,,,,,,
,,,,,,,,,,,,,,,,,,test4,2,soar2,a,2020-01-01_12h00.00.000,fingerosc_soar_2025.2.3,2025.2.4,Win32,60.97560976,,,,,,,,,,,,,,,,,,80.7591,80.9417,space,0.1726,,[],[],[],[],[],[],[],63,0,63,0,1,,,,,,,,,
,,,,,,,,,,,,,,,,,,test4,2,soar2,a,2020-01-01_12h00.00.000,fingerosc_soar_2025.2.3,2025.2.4,Win32,60.97560976,,,,,,,,,,,,,,,,,,80.9422,81.175,space,0.2154,,[],[],[],[],[],[],[],64,0,64,0,1,,,,,,,,,
,,,,,,,,,,,,,,,,,,test4,2,soar2,a,2020-01-01_12h00.00.000,fingerosc_soar_2025.2.3,2025.2.4,Win32,60.97560976,,,,,,,,,,,,,,,,,,81.1754,81.3586,space,0.1735,,[],[],[],[],[],[],[],65,0,65,0,1,,,,,,,,,
,,,,,,,,,,,,,,,,,,test4,2,soar2,a,2020-01-01_12h00.00.000,fingerosc_soar_2025.2.3,2025.2.4,Win32,60.97560976,,,,,,,,,,,,,,,,,,81.359,81.5753,space,0.199,,[],[],[],[],[],[],[],66,0,66,0,1,,,,,,,,,
,,,,,,,,,,,,,,,,,,test4,2,soar2,a,2020-01-01_12h00.00.000,fingerosc_soar_2025.2.3,2025.2.4,Win32,60.97560976,,,,,,,,,,,,,,,,,,81.5757,81.7754,space,0.1831,,[],[],[],[],[],[],[],67,0,67,0,1,,,,,,,,,
,,,,,,,,,,,,,,,,,,test4,2,soar2,a,2020-01-01_12h00.00.000,fingerosc_soar_2025.2.3,2025.2.4,Win32,60.97560976,,,,,,,,,,,,,,,,,,81.7759,81.9751,space,0.1843,,[],[],[],[],[],[],[],68,0,68,0,1,,,,,,,,,
,,,,,,,,,,,,,,,,,,test4,2,soar2,a,2020-01-01_12h00.00.000,fingerosc_soar_2025.2.3,2025.2.4,Win32,60.97560976,,,,,,,,,,,,,,,,,,81.9754,82.1919,space,0.1978,,[],[],[],[],[],[],[],69,0,69,0,1,,,,,,,,,
,,,,,,,,,,,,,,,,,,test4,2,soar2,a,2020-01-01_12h00.00.000,fingerosc_soar_2025.2.3,2025.2.4,Win32,60.97560976,,,,,,,,,,,,,,,,,,82.1923,82.4085,space,0.2024,,[],[],[],[],[],[],[],70,0,70,0,1,,,,,,,,,
,,,,,,,,,,,,,,,,,,test4,2,soar2,a,2020-01-01_12h00.00.000,fingerosc_soar_2025.2.3,2025.2.4,Win32,60.97560976,,,,,,,,,,,,,,,,,,82.4089,82.6081,space,0.1913,,[],[],[],[],[],[],[],71,0,71,0,1,,,,,,,,,
,,,,,,,,,,,,,,,,,,test4,2,soar2,a,2020-01-01_12h00.00.000,fingerosc_soar_2025.2.3,2025.2.4,Win32,60.97560976,,,,,,,,,,,,,,,,,,82.6087,82.8254,space,0.2029,,[],[],[],[],[],[],[],72,0,72,0,1,,,,,,,,,
,,,,,,,,,,,,,,,,,,test4,2,soar2,a,2020-01-01_12h00.00.000,fingerosc_soar_2025.2.3,2025.2.4,Win32,60.97560976,,,,,,,,,,,,,,,,,,82.8257,83.0587,space,0.2154,,[],[],[],[],[],[],[],73,0,73,0,1,,,,,,,,,
,,,,,,,,,,,,,,,,,,test4,2,soar2,a,2020-01-01_12h00.00.000,fingerosc_soar_2025.2.3,2025.2.4,Win32,60.97560976,,,,,,,,,,,,,,,,,,83.0591,83.2585,space,0.1887,,[],[],[],[],[],[],[],74,0,74,0,1,,,,,,,,,
,,,,,,,,,,,,,,,,,,test4,2,soar2,a,2020-01-01_12h00.00.000,fingerosc_soar_2025.2.3,2025.2.4,Win32,60.97560976,,,,,,,,,,,,,,,,,,83.2589,83.4751,space,0.2012,,[],[],[],[],[],[],[],75,0,75,0,1,,,,,,,,,
,,,,,,,,,,,,,,,,,,test4,2,soar2,a,2020-01-01_12h00.00.000,fingerosc_soar_2025.2.3,2025.2.4,Win32,60.97560976,,,,,,,,,,,,,,,,,,83.4756,83.6919,space,0.1978,,[],[],[],[],[],[],[],76,0,76,0,1,,,,,,,,,
,,,,,,,,,,,,,,,,,,test4,2,soar2,a,2020-01-01_12h00.00.000,fingerosc_soar_2025.2.3,2025.2.4,Win32,60.97560976,,,,,,,,,,,,,,,,,,83.6923,83.8748,space,0.1753,,[],[],[],[],[],[],[],77,0,77,0,1,,,,,,,,,
,,,,,,,,,,,,,,,,,,test4,2,soar2,a,2020-01-01_12h00.00.000,fingerosc_soar_2025.2.3,2025.2.4,Win32,60.97560976,,,,,,,,,,,,,,,,,,83.8752,84.1085,space,0.2233,,[],[],[],[],[],[],[],78,0,78,0,1,,,,,,,,,
,,,,,,,,,,,,,,,,,,test4,2,soar2,a,2020-01-01_12h00.00.000,fingerosc_soar_2025.2.3,2025.2.4,Win32,60.97560976,,,,,,,,,,,,,,,,,,84.1088,84.3081,space,0.1931,,[],[],[],[],[],[],[],79,0,79,0,1,,,,,,,,,
,,,,,,,,,,,,,,,,,,test4,2,soar2,a,2020-01-01_12h00.00.000,fingerosc_soar_2025.2.3,2025.2.4,Win32,60.97560976,,,,,,,,,,,,,,,,,,84.3085,84.5419,space,0.2181,,[],[],[],[],[],[],[],80,0,80,0,1,,,,,,,,,
,,,,,,,,,,,,,,,,,,test4,2,soar2,a,2020-01-01_12h00.00.000,fingerosc_soar_2025.2.3,2025.2.4,Win32,60.97560976,,,,,,,,,,,,,,,,,,84.5424,84.7584,space,0.1978,,[],[],[],[],[],[],[],81,0,81,0,1,,,,,,,,,
,,,,,,,,,,,,,,,,,,test4,2,soar2,a,2020-01-01_12h00.00.000,fingerosc_soar_2025.2.3,2025.2.4,Win32,60.97560976,,,,,,,,,,,,,,,,,,84.7589,84.9754,space,0.1992,,[],[],[],[],[],[],[],82,0,82,0,1,,,,,,,,,
,,,,,,,,,,,,,,,,,,test4,2,soar2,a,2020-01-01_12h00.00.000,fingerosc_soar_2025.2.3,2025.2.4,Win32,60.97560976,,,,,,,,,,,,,,,,,,84.9759,85.175,space,0.1907,,[],[],[],[],[],[],[],83,0,83,0,1,,,,,,,,,
,,,,,,,,,,,,,,,,,,test4,2,soar2,a,2020-01-01_12h00.00.000,fingerosc_soar_2025.2.3,2025.2.4,Win32,60.97560976,,,,,,,,,,,,,,,,,,85.1755,85.3746,space,0.1877,,[],[],[],[],[],[],[],84,0,84,0,1,,,,,,,,,
,,,,,,,,,,,,,,,,,,test4,2,soar2,a,2020-01-01_12h00.00.000,fingerosc_soar_2025.2.3,2025.2.4,Win32,60.97560976,,,,,,,,,,,,,,,,,,85.375,85.5918,space,0.1996,,[],[],[],[],[],[],[],85,0,85,0,1,,,,,,,,,
,,,,,,,,,,,,,,,,,,test4,2,soar2,a,2020-01-01_12h00.00.000,fingerosc_soar_2025.2.3,2025.2.4,Win32,60.97560976,,,,,,,,,,,,,,,,,,85.5923,85.8252,space,0.2164,,[],[],[],[],[],[],[],86,0,86,0,1,,,,,,,,,
,,,,,,,,,,,,,,,,,,test4,2,soar2,a,2020-01-01_12h00.00.000,fingerosc_soar_2025.2.3,2025.2.4,Win32,60.97560976,,,,,,,,,,,,,,,,,,85.8257,86.0249,space,0.1821,,[],[],[],[],[],[],[],87,0,87,0,1,,,,,,,,,
,,,,,,,,,,,,,,,,,,test4,2,soar2,a,2020-01-01_12h00.00.000,fingerosc_soar_2025.2.3,2025.2.4,Win32,60.97560976,,,,,,,,,,,,,,,,,,86.0255,86.2577,space,0.2224,,[],[],[],[],[],[],[],88,0,88,0,1,,,,,,,,,
,,,,,,,,,,,,,,,,,,test4,2,soar2,a,2020-01-01_12h00.00.000,fingerosc_soar_2025.2.3,2025.2.4,Win32,60.97560976,,,,,,,,,,,,,,,,,,86.2582,86.4417,space,0.1684,,[],[],[],[],[],[],[],89,0,89,0,1,,,,,,,,,
,,,,,,,,,,,,,,,,,,test4,2,soar2,a,2020-01-01_12h00.00.000,fingerosc_soar_2025.2.3,2025.2.4,Win32,60.97560976,,,,,,,,,,,,,,,,,,86.4421,86.6411,space,0.1842,,[],[],[],[],[],[],[],90,0,90,0,1,,,,,,,,,
,,,,,,,,,,,,,,,,,,test4,2,soar2,a,2020-01-01_12h00.00.000,fingerosc_soar_2025.2.3,2025.2.4,Win32,60.97560976,,,,,,,,,,,,,,,,,,86.6415,86.8915,space,0.2323,,[],[],[],[],[],[],[],91,0,91,0,1,,,,,,,,,
,,,,,,,,,,,,,,,,,,test4,2,soar2,a,2020-01-01_12h00.00.000,fingerosc_soar_2025.2.3,2025.2.4,Win32,60.97560976,,,,,,,,,,,,,,,,,,86.8919,87.0913,space,0.1907,,[],[],[],[],[],[],[],92,0,92,0,1,,,,,,,,,
,,,,,,,,,,,,,,,,,,test4,2,soar2,a,2020-01-01_12h00.00.000,fingerosc_soar_2025.2.3,2025.2.4,Win32,60.97560976,,,,,,,,,,,,,,,,,,87.0918,87.3083,space,0.1999,,[],[],[],[],[],[],[],93,0,93,0,1,,,,,,,,,
,,,,,,,,,,,,,,,,,,test4,2,soar2,a,2020-01-01_12h00.00.000,fingerosc_soar_2025.2.3,2025.2.4,Win32,60.97560976,,,,,,,,,,,,,,,,,,87.3088,87.508,space,0.1876,,[],[],[],[],[],[],[],94,0,94,0,1,,,,,,,,,
,,,,,,,,,,,,,,,,,,test4,2,soar2,a,2020-01-01_12h00.00.000,fingerosc_soar_2025.2.3,2025.2.4,Win32,60.97560976,,,,,,,,,,,,,,,,,,87.5084,87.7252,space,0.2014,,[],[],[],[],[],[],[],95,0,95,0,1,,,,,,,,,
,,,,,,,,,,,,,,,,,,test4,2,soar2,a,2020-01-01_12h00.00.000,fingerosc_soar_2025.2.3,2025.2.4,Win32,60.97560976,,,,,,,,,,,,,,,,,,87.7256,87.908,space,0.1678,,[],[],[],[],[],[],[],96,0,96,0,1,,,,,,,,,
,,,,,,,,,,,,,,,,,,test4,2,soar2,a,2020-01-01_12h00.00.000,fingerosc_soar_2025.2.3,2025.2.4,Win32,60.97560976,,,,,,,,,,,,,,,,,,87.9085,88.1247,space,0.2087,,[],[],[],[],[],[],[],97,0,97,0,1,,,,,,,,,
,,,,,,,,,,,,,,,,,,test4,2,soar2,a,2020-01-01_12h00.00.000,fingerosc_soar_2025.2.3,2025.2.4,Win32,60.97560976,,,,,,,,,,,,,,,,,,88.1252,88.4082,space,0.2721,,[],[],[],[],[],[],[],98,0,98,0,1,,,,,,,,,
,,,,,,,,,,,,,,,,,,test4,2,soar2,a,2020-01-01_12h00.00.000,fingerosc_soar_2025.2.3,2025.2.4,Win32,60.97560976,,,,,,,,,,,,,,,,,,88.4086,88.7077,space,0.2827,,[],[],[],[],[],[],[],99,0,99,0,1,,,,,,,,,
,,,,,,,,,,,,,,,,,,test4,2,soar2,a,2020-01-01_12h00.00.000,fingerosc_soar_2025.2.3,2025.2.4,Win32,60.97560976,,,,,,,,,,,,,,,,,,88.7083,88.891,space,0.1764,,[],[],[],[],[],[],[],100,0,100,0,1,,,,,,,,,
,,,,,,,,,,,,,,,,,,test4,2,soar2,a,2020-01-01_12h00.00.000,fingerosc_soar_2025.2.3,2025.2.4,Win32,60.97560976,,,,,,,,,,,,,,,,,,88.8915,89.1417,space,0.2317,,[],[],[],[],[],[],[],101,0,101,0,1,,,,,,,,,
,,,,,,,,,,,,,,,,,,test4,2,soar2,a,2020-01-01_12h00.00.000,fingerosc_soar_2025.2.3,2025.2.4,Win32,60.97560976,,,,,,,,,,,,,,,,,,89.1423,89.3753,space,0.2157,,[],[],[],[],[],[],[],102,0,102,0,1,,,,,,,,,
,,,,,,,,,,,,,,,,,,test4,2,soar2,a,2020-01-01_12h00.00.000,fingerosc_soar_2025.2.3,2025.2.4,Win32,60.97560976,,,,,,,,,,,,,,,,,,89.3757,89.5414,space,0.1555,,[],[],[],[],[],[],[],103,0,103,0,1,,,,,,,,,
,,,,,,,,,,,,,,,,,,test4,2,soar2,a,2020-01-01_12h00.00.000,fingerosc_soar_2025.2.3,2025.2.4,Win32,60.97560976,,,,,,,,,,,,,,,,,,89.5418,89.7746,space,0.2166,,[],[],[],[],[],[],[],104,0,104,0,1,,,,,,,,,
,,,,,,,,,,,,,,,,,,test4,2,soar2,a,2020-01-01_12h00.00.000,fingerosc_soar_2025.2.3,2025.2.4,Win32,60.97560976,,,,,,,,,,,,,,,,,,89.775,90.0582,space,0.268,,[],[],[],[],[],[],[],105,0,105,0,1,,,,,,,,,
,,,,,,,,,,,,,,,,,,test4,2,soar2,a,2020-01-01_12h00.00.000,fingerosc_soar_2025.2.3,2025.2.4,Win32,60.97560976,,,,,,,,,,,,,,,,,,90.0585,90.3582,space,0.2842,,[],[],[],[],[],[],[],106,0,106,0,1,,,,,,,,,
,,,,,,,,,,,,,,,,,,test4,2,soar2,a,2020-01-01_12h00.00.000,fingerosc_soar_2025.2.3,2025.2.4,Win32,60.97560976,,,,,,,,,,,,,,,,,,90.3587,90.5915,space,0.2186,,[],[],[],[],[],[],[],107,0,107,0,1,,,,,,,,,
,,,,,,,,,,,,,,,,,,test4,2,soar2,a,2020-01-01_12h00.00.000,fingerosc_soar_2025.2.3,2025.2.4,Win32,60.97560976,,,,,,,,,,,,,,,,,,90.5919,90.7911,space,0.1894,,[],[],[],[],[],[],[],108,0,108,0,1,,,,,,,,,
,,,,,,,,,,,,,,,,,,test4,2,soar2,a,2020-01-01_12h00.00.000,fingerosc_soar_2025.2.3,2025.2.4,Win32,60.97560976,,,,,,,,,,,,,,,,,,90.7915,91.0581,space,0.2526,,[],[],[],[],[],[],[],109,0,109,0,1,,,,,,,,,
,,,,,,,,,,,,,,,,,,test4,2,soar2,a,2020-01-01_12h00.00.000,fingerosc_soar_2025.2.3,2025.2.4,Win32,60.97560976,,,,,,,,,,,,,,,,,,91.0584,91.2917,space,0.2158,,[],[],[],[],[],[],[],110,0,110,0,1,,,,,,,,,
,,,,,,,,,,,,,,,,,,test4,2,soar2,a,2020-01-01_12h00.00.000,fingerosc_soar_2025.2.3,2025.2.4,Win32,60.97560976,,,,,,,,,,,,,,,,,,91.2921,91.5247,space,0.2178,,[],[],[],[],[],[],[],111,0,111,0,1,,,,,,,,,
,,,,,,,,,,,,,,,,,,test4,2,soar2,a,2020-01-01_12h00.00.000,fingerosc_soar_2025.2.3,2025.2.4,Win32,60.97560976,,,,,,,,,,,,,,,,,,91.525,91.708,space,0.1659,,[],[],[],[],[],[],[],112,0,112,0,1,,,,,,,,,
,,,,,,,,,,,,,,,,,,test4,2,soar2,a,2020-01-01_12h00.00.000,fingerosc_soar_2025.2.3,2025.2.4,Win32,60.97560976,,,,,,,,,,,,,,,,,,91.7085,91.9081,space,0.1884,,[],[],[],[],[],[],[],113,0,113,0,1,,,,,,,,,
,,,,,,,,,,,,,,,,,,test4,2,soar2,a,2020-01-01_12h00.00.000,fingerosc_soar_2025.2.3,2025.2.4,Win32,60.97560976,,,,,,,,,,,,,,,,,,91.9085,92.1415,space,0.2165,,[],[],[],[],[],[],[],114,0,114,0,1,,,,,,,,,
,,,,,,,,,,,,,,,,,,test4,2,soar2,a,2020-01-01_12h00.00.000,fingerosc_soar_2025.2.3,2025.2.4,Win32,60.97560976,,,,,,,,,,,,,,,,,,92.1419,92.3407,space,0.186,,[],[],[],[],[],[],[],115,0,115,0,1,,,,,,,,,
,,,,,,,,,,,,,,,,,,test4,2,soar2,a,2020-01-01_12h00.00.000,fingerosc_soar_2025.2.3,2025.2.4,Win32,60.97560976,,,,,,,,,,,,,,,,,,92.3412,92.5581,space,0.2074,,[],[],[],[],[],[],[],116,0,116,0,1,,,,,,,,,
,,,,,,,,,,,,,,,,,,test4,2,soar2,a,2020-01-01_12h00.00.000,fingerosc_soar_2025.2.3,2025.2.4,Win32,60.97560976,,,,,,,,,,,,,,,,,,92.5585,92.7581,space,0.1815,,[],[],[],[],[],[],[],117,0,117,0,1,,,,,,,,,
,,,,,,,,,,,,,,,,,,test4,2,soar2,a,2020-01-01_12h00.00.000,fingerosc_soar_2025.2.3,2025.2.4,Win32,60.97560976,,,,,,,,,,,,,,,,,,92.7586,93.008,space,0.2324,,[],[],[],[],[],[],[],118,0,118,0,1,,,,,,,,,
,,,,,,,,,,,,,,,,,,test4,2,soar2,a,2020-01-01_12h00.00.000,fingerosc_soar_2025.2.3,2025.2.4,Win32,60.97560976,,,,,,,,,,,,,,,,,,93.0085,93.208,space,0.1828,,[],[],[],[],[],[],[],119,0,119,0,1,,,,,,,,,
,,,,,,,,,,,,,,,,,,test4,2,soar2,a,2020-01-01_12h00.00.000,fingerosc_soar_2025.2.3,2025.2.4,Win32,60.97560976,,,,,,,,,,,,,,,,,,93.2084,93.4413,space,0.2173,,[],[],[],[],[],[],[],120,0,120,0,1,,,,,,,,,
,,,,,,,,,,,,,,,,,,test4,2,soar2,a,2020-01-01_12h00.00.000,fingerosc_soar_2025.2.3,2025.2.4,Win32,60.97560976,,,,,,,,,,,,,,,,,,93.4417,93.6413,space,0.1857,,[],[],[],[],[],[],[],121,0,121,0,1,,,,,,,,,
,,,,,,,,,,,,,,,,,,test4,2,soar2,a,2020-01-01_12h00.00.000,fingerosc_soar_2025.2.3,2025.2.4,Win32,60.97560976,,,,,,,,,,,,,,,,,,93.6417,93.8908,space,0.2334,,[],[],[],[],[],[],[],122,0,122,0,1,,,,,,,,,
,,,,,,,,,,,,,,,,,,test4,2,soar2,a,2020-01-01_12h00.00.000,fingerosc_soar_2025.2.3,2025.2.4,Win32,60.97560976,,,,,,,,,,,,,,,,,,93.8912,94.0913,space,0.1867,,[],[],[],[],[],[],[],123,0,123,0,1,,,,,,,,,
,,,,,,,,,,,,,,,,,,test4,2,soar2,a,2020-01-01_12h00.00.000,fingerosc_soar_2025.2.3,2025.2.4,Win32,60.97560976,,,,,,,,,,,,,,,,,,94.0918,94.2746,space,0.1741,,[],[],[],[],[],[],[],124,0,124,0,1,,,,,,,,,
,,,,,,,,,,,,,,,,,,test4,2,soar2,a,2020-01-01_12h00.00.000,fingerosc_soar_2025.2.3,2025.2.4,Win32,60.97560976,,,,,,,,,,,,,,,,,,94.2751,94.4911,space,0.2046,,[],[],[],[],[],[],[],125,0,125,0,1,,,,,,,,,
,,,,,,,,,,,,,,,,,,test4,2,soar2,a,2020-01-01_12h00.00.000,fingerosc_soar_2025.2.3,2025.2.4,Win32,60.97560976,,,,,,,,,,,,,,,,,,94.4915,94.7241,space,0.2156,,[],[],[],[],[],[],[],126,0,126,0,1,,,,,,,,,
,,,,,,,,,,,,,,,,,,test4,2,soar2,a,2020-01-01_12h00.00.000,fingerosc_soar_2025.2.3,2025.2.4,Win32,60.97560976,,,,,,,,,,,,,,,,,,94.7246,94.9074,space,0.1737,,[],[],[],[],[],[],[],127,0,127,0,1,,,,,,,,,
,,,,,,,,,,,,,,,,,,test4,2,soar2,a,2020-01-01_12h00.00.000,fingerosc_soar_2025.2.3,2025.2.4,Win32,60.97560976,,,,,,,,,,,,,,,,,,94.9079,95.1241,space,0.1991,,[],[],[],[],[],[],[],128,0,128,0,1,,,,,,,,,
,,,,,,,,,,,,,,,,,,test4,2,soar2,a,2020-01-01_12h00.00.000,fingerosc_soar_2025.2.3,2025.2.4,Win32,60.97560976,,,,,,,,,,,,,,,,,,95.1246,95.3072,space,0.1661,,[],[],[],[],[],[],[],129,0,129,0,1,,,,,,,,,
,,,,,,,,,,,,,,,,,,test4,2,soar2,a,2020-01-01_12h00.00.000,fingerosc_soar_2025.2.3,2025.2.4,Win32,60.97560976,,,,,,,,,,,,,,,,,,95.3077,95.5408,space,0.216,,[],[],[],[],[],[],[],130,0,130,0,1,,,,,,,,,
,,,,,,,,,,,,,,,,,,test4,2,soar2,a,2020-01-01_12h00.00.000,fingerosc_soar_2025.2.3,2025.2.4,Win32,60.97560976,,,,,,,,,,,,,,,,,,95.5412,95.7411,space,0.184,,[],[],[],[],[],[],[],131,0,131,0,1,,,,,,,,,
,,,,,,,,,,,,,,,,,,test4,2,soar2,a,2020-01-01_12h00.00.000,fingerosc_soar_2025.2.3,2025.2.4,Win32,60.97560976,,,,,,,,,,,,,,,,,,95.7414,95.9914,space,0.2314,,[],[],[],[],[],[],[],132,0,132,0,1,,,,,,,,,
,,,,,,,,,,,,,,,,,,test4,2,soar2,a,2020-01-01_12h00.00.000,fingerosc_soar_2025.2.3,2025.2.4,Win32,60.97560976,,,,,,,,,,,,,,,,,,95.9917,96.1912,space,0.187,,[],[],[],[],[],[],[],133,0,133,0,1,,,,,,,,,
,,,,,,,,,,,,,,,,,,test4,2,soar2,a,2020-01-01_12h00.00.000,fingerosc_soar_2025.2.3,2025.2.4,Win32,60.97560976,,,,,,,,,,,,,,,,,,96.1917,96.4072,space,0.2037,,[],[],[],[],[],[],[],134,0,134,0,1,,,,,,,,,
,,,,,,,,,,,,,,,,,,test4,2,soar2,a,2020-01-01_12h00.00.000,fingerosc_soar_2025.2.3,2025.2.4,Win32,60.97560976,,,,,,,,,,,,,,,,,,96.4077,96.6073,space,0.192,,[],[],[],[],[],[],[],135,0,135,0,1,,,,,,,,,
,,,,,,,,,,,,,,,,,,test4,2,soar2,a,2020-01-01_12h00.00.000,fingerosc_soar_2025.2.3,2025.2.4,Win32,60.97560976,,,,,,,,,,,,,,,,,,96.6077,96.8247,space,0.2017,,[],[],[],[],[],[],[],136,0,136,0,1,,,,,,,,,
,,,,,,,,,,,,,,,,,,test4,2,soar2,a,2020-01-01_12h00.00.000,fingerosc_soar_2025.2.3,2025.2.4,Win32,60.97560976,,,,,,,,,,,,,,,,,,96.8252,97.0412,space,0.2042,,[],[],[],[],[],[],[],137,0,137,0,1,,,,,,,,,
,,,,,,,,,,,,,,,,,,test4,2,soar2,a,2020-01-01_12h00.00.000,fingerosc_soar_2025.2.3,2025.2.4,Win32,60.97560976,,,,,,,,,,,,,,,,,,97.0417,97.2574,space,0.1988,,[],[],[],[],[],[],[],138,0,138,0,1,,,,,,,,,
,,,,,,,,,,,,,,,,,,test4,2,soar2,a,2020-01-01_12h00.00.000,fingerosc_soar_2025.2.3,2025.2.4,Win32,60.97560976,,,,,,,,,,,,,,,,,,97.2578,97.4741,space,0.211,,[],[],[],[],[],[],[],139,0,139,0,1,,,,,,,,,
,,,,,,,,,,,,,,,,,,test4,2,soar2,a,2020-01-01_12h00.00.000,fingerosc_soar_2025.2.3,2025.2.4,Win32,60.97560976,,,,,,,,,,,,,,,,,,97.4745,97.6746,space,0.1829,,[],[],[],[],[],[],[],140,0,140,0,1,,,,,,,,,
,,,,,,,,,,,,,,,,,,test4,2,soar2,a,2020-01-01_12h00.00.000,fingerosc_soar_2025.2.3,2025.2.4,Win32,60.97560976,,,,,,,,,,,,,,,,,,97.6749,97.9072,space,0.2153,,[],[],[],[],[],[],[],141,0,141,0,1,,,,,,,,,
,,,,,,,,,,,,,,,,,,test4,2,soar2,a,2020-01-01_12h00.00.000,fingerosc_soar_2025.2.3,2025.2.4,Win32,60.97560976,,,,,,,,,,,,,,,,,,97.9077,98.1244,space,0.1993,,[],[],[],[],[],[],[],142,0,142,0,1,,,,,,,,,
,,,,,,,,,,,,,,,,,,test4,2,soar2,a,2020-01-01_12h00.00.000,fingerosc_soar_2025.2.3,2025.2.4,Win32,60.97560976,,,,,,,,,,,,,,,,,,,,,,,,,,,,,,,,,,,98.1245,101.1242,1,0,1,0,1,,
,,,,,,,,,,,,,,,,,,test4,2,soar2,a,2020-01-01_12h00.00.000,fingerosc_soar_2025.2.3,2025.2.4,Win32,60.97560976,,,,,,,,,,,,,,,,,,,,,,,,,,,,,,,,,,,,,,,,,,101.1246,104.1241