check_device.started,check_device.stopped,participant,session,date,expName,psychopyVersion,OS,frameRate,introduction.started,introduction.stopped,Intro_Video.started,Intro_Video.stopped,readyup.started,readyup.stopped,dominanttappingtrial.started,dominanttappingtrial.stopped,mouse_Right.x,mouse_Right.y,mouse_Right.leftButton,mouse_Right.midButton,mouse_Right.rightButton,mouse_Right.time,mouse_Right.clicked_name,fingerdominanttrial.thisRepN,fingerdominanttrial.thisTrialN,fingerdominanttrial.thisN,fingerdominanttrial.thisIndex,fingerdominanttrial.ran,textFO,correctresponseRight,correctresponseLeft,completed_trial.started,completed_trial.stopped,readyup_2.started,readyup_2.stopped,nondominantappingtrial.started,nondominantappingtrial.stopped,mouse_Left.x,mouse_Left.y,mouse_Left.leftButton,mouse_Left.midButton,mouse_Left.rightButton,mouse_Left.time,mouse_Left.clicked_name,fingernondominanttrial.thisRepN,fingernondominanttrial.thisTrialN,fingernondominanttrial.thisN,fingernondominanttrial.thisIndex,fingernondominanttrial.ran,finishedtask.started,finishedtask.stopped
0,0.001,test1,1,2020-01-01_12h00.00.000,FingerOsc_Touch_v3_video,2023.2.2,MacIntel,43.47826087,,,,,,,,,,,,,,,,,,,,,,,,,,,,,,,,,,,,,,,,,,,
,,test1,1,2020-01-01_12h00.00.000,FingerOsc_Touch_v3_video,2023.2.2,MacIntel,43.47826087,0.001,3.993,,,,,,,,,,,,,,,,,,,,,,,,,,,,,,,,,,,,,,,,,
,,test1,1,2020-01-01_12h00.00.000,FingerOsc_Touch_v3_video,2023.2.2,MacIntel,43.47826087,,,3.998,39.993,39.995,53.998,54.03,54.733,0.372901679,-0.558153477,1,0,0,0.254,buttonFO_Right,0,0,0,0,1,X,buttonFO_Right,buttonFO_Left,,,,,,,,,,,,,,,,,,,,
,,test1,1,2020-01-01_12h00.00.000,FingerOsc_Touch_v3_video,2023.2.2,MacIntel,43.47826087,,,,,,,54.734,54.867,0.225419664,-0.193645084,1,0,0,0.133,buttonFO_Right,0,1,1,1,1,X,buttonFO_Right,buttonFO_Left,,,,,,,,,,,,,,,,,,,,
,,test1,1,2020-01-01_12h00.00.000,FingerOsc_Touch_v3_video,2023.2.2,MacIntel,43.47826087,,,,,,,54.867,55.007,0.196642686,-0.185251799,1,0,0,0.139,buttonFO_Right,0,2,2,2,1,X,buttonFO_Right,buttonFO_Left,,,,,,,,,,,,,,,,,,,,
,,test1,1,2020-01-01_12h00.00.000,FingerOsc_Touch_v3_video,2023.2.2,MacIntel,43.47826087,,,,,,,55.007,55.166,0.197841727,-0.179256595,1,0,0,0.159,buttonFO_Right,0,3,3,3,1,X,buttonFO_Right,buttonFO_Left,,,,,,,,,,,,,,,,,,,,
,,test1,1,2020-01-01_12h00.00.000,FingerOsc_Touch_v3_video,2023.2.2,MacIntel,43.47826087,,,,,,,55.167,55.308,0.190647482,-0.18764988,1,0,0,0.141,buttonFO_Right,0,4,4,4,1,X,buttonFO_Right,buttonFO_Left,,,,,,,,,,,,,,,,,,,,
,,test1,1,2020-01-01_12h00.00.000,FingerOsc_Touch_v3_video,2023.2.2,MacIntel,43.47826087,,,,,,,55.308,55.466,0.183453237,-0.186450839,1,0,0,0.158,buttonFO_Right,0,5,5,5,1,X,buttonFO_Right,buttonFO_Left,,,,,,,,,,,,,,,,,,,,
,,test1,1,2020-01-01_12h00.00.000,FingerOsc_Touch_v3_video,2023.2.2,MacIntel,43.47826087,,,,,,,55.466,55.591,0.183453237,-0.196043165,1,0,0,0.125,buttonFO_Right,0,6,6,6,1,X,buttonFO_Right,buttonFO_Left,,,,,,,,,,,,,,,,,,,,
,,test1,1,2020-01-01_12h00.00.000,FingerOsc_Touch_v3_video,2023.2.2,MacIntel,43.47826087,,,,,,,55.591,55.757,0.177458034,-0.20323741,1,0,0,0.166,buttonFO_Right,0,7,7,7,1,X,buttonFO_Right,buttonFO_Left,,,,,,,,,,,,,,,,,,,,
,,test1,1,2020-01-01_12h00.00.000,FingerOsc_Touch_v3_video,2023.2.2,MacIntel,43.47826087,,,,,,,55.758,55.917,0.166666667,-0.202038369,1,0,0,0.159,buttonFO_Right,0,8,8,8,1,X,buttonFO_Right,buttonFO_Left,,,,,,,,,,,,,,,,,,,,
,,test1,1,2020-01-01_12h00.00.000,FingerOsc_Touch_v3_video,2023.2.2,MacIntel,43.47826087,,,,,,,55.918,56.067,0.169064748,-0.199640288,1,0,0,0.148,buttonFO_Right,0,9,9,9,1,X,buttonFO_Right,buttonFO_Left,,,,,,,,,,,,,,,,,,,,
,,test1,1,2020-01-01_12h00.00.000,FingerOsc_Touch_v3_video,2023.2.2,MacIntel,43.47826087,,,,,,,56.067,56.224,0.17146283,-0.198441247,1,0,0,0.157,buttonFO_Right,0,10,10,10,1,X,buttonFO_Right,buttonFO_Left,,,,,,,,,,,,,,,,,,,,
,,test1,1,2020-01-01_12h00.00.000,FingerOsc_Touch_v3_video,2023.2.2,MacIntel,43.47826087,,,,,,,56.225,56.367,0.175059952,-0.205635492,1,0,0,0.142,buttonFO_Right,0,11,11,11,1,X,buttonFO_Right,buttonFO_Left,,,,,,,,,,,,,,,,,,,,
,,test1,1,2020-01-01_12h00.00.000,FingerOsc_Touch_v3_video,2023.2.2,MacIntel,43.47826087,,,,,,,56.368,56.534,0.172661871,-0.20323741,1,0,0,0.166,buttonFO_Right,0,12,12,12,1,X,buttonFO_Right,buttonFO_Left,,,,,,,,,,,,,,,,,,,,
,,test1,1,2020-01-01_12h00.00.000,FingerOsc_Touch_v3_video,2023.2.2,MacIntel,43.47826087,,,,,,,56.534,56.692,0.139088729,-0.190047962,1,0,0,0.157,buttonFO_Right,0,13,13,13,1,X,buttonFO_Right,buttonFO_Left,,,,,,,,,,,,,,,,,,,,
,,test1,1,2020-01-01_12h00.00.000,FingerOsc_Touch_v3_video,2023.2.2,MacIntel,43.47826087,,,,,,,56.693,56.842,0.125899281,-0.193645084,1,0,0,0.149,buttonFO_Right,0,14,14,14,1,X,buttonFO_Right,buttonFO_Left,,,,,,,,,,,,,,,,,,,,
,,test1,1,2020-01-01_12h00.00.000,FingerOsc_Touch_v3_video,2023.2.2,MacIntel,43.47826087,,,,,,,56.842,57.017,0.14028777,-0.200839329,1,0,0,0.175,buttonFO_Right,0,15,15,15,1,X,buttonFO_Right,buttonFO_Left,,,,,,,,,,,,,,,,,,,,
,,test1,1,2020-01-01_12h00.00.000,FingerOsc_Touch_v3_video,2023.2.2,MacIntel,43.47826087,,,,,,,57.017,57.184,0.159472422,-0.198441247,1,0,0,0.167,buttonFO_Right,0,16,16,16,1,X,buttonFO_Right,buttonFO_Left,,,,,,,,,,,,,,,,,,,,
,,test1,1,2020-01-01_12h00.00.000,FingerOsc_Touch_v3_video,2023.2.2,MacIntel,43.47826087,,,,,,,57.185,57.334,0.170263789,-0.206834532,1,0,0,0.149,buttonFO_Right,0,17,17,17,1,X,buttonFO_Right,buttonFO_Left,,,,,,,,,,,,,,,,,,,,
,,test1,1,2020-01-01_12h00.00.000,FingerOsc_Touch_v3_video,2023.2.2,MacIntel,43.47826087,,,,,,,57.334,57.491,0.190647482,-0.204436451,1,0,0,0.157,buttonFO_Right,0,18,18,18,1,X,buttonFO_Right,buttonFO_Left,,,,,,,,,,,,,,,,,,,,
,,test1,1,2020-01-01_12h00.00.000,FingerOsc_Touch_v3_video,2023.2.2,MacIntel,43.47826087,,,,,,,57.492,57.66,0.194244604,-0.223621103,1,0,0,0.168,buttonFO_Right,0,19,19,19,1,X,buttonFO_Right,buttonFO_Left,,,,,,,,,,,,,,,,,,,,
,,test1,1,2020-01-01_12h00.00.000,FingerOsc_Touch_v3_video,2023.2.2,MacIntel,43.47826087,,,,,,,57.66,57.791,0.200239808,-0.221223022,1,0,0,0.13,buttonFO_Right,0,20,20,20,1,X,buttonFO_Right,buttonFO_Left,,,,,,,,,,,,,,,,,,,,
,,test1,1,2020-01-01_12h00.00.000,FingerOsc_Touch_v3_video,2023.2.2,MacIntel,43.47826087,,,,,,,57.791,57.942,0.207434053,-0.212829736,1,0,0,0.151,buttonFO_Right,0,21,21,21,1,X,buttonFO_Right,buttonFO_Left,,,,,,,,,,,,,,,,,,,,
,,test1,1,2020-01-01_12h00.00.000,FingerOsc_Touch_v3_video,2023.2.2,MacIntel,43.47826087,,,,,,,57.943,58.099,0.214628297,-0.214028777,1,0,0,0.156,buttonFO_Right,0,22,22,22,1,X,buttonFO_Right,buttonFO_Left,,,,,,,,,,,,,,,,,,,,
,,test1,1,2020-01-01_12h00.00.000,FingerOsc_Touch_v3_video,2023.2.2,MacIntel,43.47826087,,,,,,,58.099,58.259,0.215827338,-0.208033573,1,0,0,0.16,buttonFO_Right,0,23,23,23,1,X,buttonFO_Right,buttonFO_Left,,,,,,,,,,,,,,,,,,,,
,,test1,1,2020-01-01_12h00.00.000,FingerOsc_Touch_v3_video,2023.2.2,MacIntel,43.47826087,,,,,,,58.259,58.434,0.217026379,-0.199640288,1,0,0,0.175,buttonFO_Right,0,24,24,24,1,X,buttonFO_Right,buttonFO_Left,,,,,,,,,,,,,,,,,,,,
,,test1,1,2020-01-01_12h00.00.000,FingerOsc_Touch_v3_video,2023.2.2,MacIntel,43.47826087,,,,,,,58.434,58.601,0.217026379,-0.194844125,1,0,0,0.166,buttonFO_Right,0,25,25,25,1,X,buttonFO_Right,buttonFO_Left,,,,,,,,,,,,,,,,,,,,
,,test1,1,2020-01-01_12h00.00.000,FingerOsc_Touch_v3_video,2023.2.2,MacIntel,43.47826087,,,,,,,58.601,58.785,0.238609113,-0.192446043,1,0,0,0.184,buttonFO_Right,0,26,26,26,1,X,buttonFO_Right,buttonFO_Left,,,,,,,,,,,,,,,,,,,,
,,test1,1,2020-01-01_12h00.00.000,FingerOsc_Touch_v3_video,2023.2.2,MacIntel,43.47826087,,,,,,,58.785,58.951,0.243405276,-0.193645084,1,0,0,0.166,buttonFO_Right,0,27,27,27,1,X,buttonFO_Right,buttonFO_Left,,,,,,,,,,,,,,,,,,,,
,,test1,1,2020-01-01_12h00.00.000,FingerOsc_Touch_v3_video,2023.2.2,MacIntel,43.47826087,,,,,,,58.952,59.119,0.239808153,-0.197242206,1,0,0,0.167,buttonFO_Right,0,28,28,28,1,X,buttonFO_Right,buttonFO_Left,,,,,,,,,,,,,,,,,,,,
,,test1,1,2020-01-01_12h00.00.000,FingerOsc_Touch_v3_video,2023.2.2,MacIntel,43.47826087,,,,,,,59.119,59.276,0.23381295,-0.196043165,1,0,0,0.157,buttonFO_Right,0,29,29,29,1,X,buttonFO_Right,buttonFO_Left,,,,,,,,,,,,,,,,,,,,
,,test1,1,2020-01-01_12h00.00.000,FingerOsc_Touch_v3_video,2023.2.2,MacIntel,43.47826087,,,,,,,59.276,59.443,0.23381295,-0.200839329,1,0,0,0.167,buttonFO_Right,0,30,30,30,1,X,buttonFO_Right,buttonFO_Left,,,,,,,,,,,,,,,,,,,,
,,test1,1,2020-01-01_12h00.00.000,FingerOsc_Touch_v3_video,2023.2.2,MacIntel,43.47826087,,,,,,,59.443,59.618,0.238609113,-0.209232614,1,0,0,0.175,buttonFO_Right,0,31,31,31,1,X,buttonFO_Right,buttonFO_Left,,,,,,,,,,,,,,,,,,,,
,,test1,1,2020-01-01_12h00.00.000,FingerOsc_Touch_v3_video,2023.2.2,MacIntel,43.47826087,,,,,,,59.618,59.776,0.245803357,-0.204436451,1,0,0,0.158,buttonFO_Right,0,32,32,32,1,X,buttonFO_Right,buttonFO_Left,,,,,,,,,,,,,,,,,,,,
,,test1,1,2020-01-01_12h00.00.000,FingerOsc_Touch_v3_video,2023.2.2,MacIntel,43.47826087,,,,,,,59.777,59.952,0.239808153,-0.206834532,1,0,0,0.174,buttonFO_Right,0,33,33,33,1,X,buttonFO_Right,buttonFO_Left,,,,,,,,,,,,,,,,,,,,
,,test1,1,2020-01-01_12h00.00.000,FingerOsc_Touch_v3_video,2023.2.2,MacIntel,43.47826087,,,,,,,59.952,60.102,0.241007194,-0.199640288,1,0,0,0.15,buttonFO_Right,0,34,34,34,1,X,buttonFO_Right,buttonFO_Left,,,,,,,,,,,,,,,,,,,,
,,test1,1,2020-01-01_12h00.00.000,FingerOsc_Touch_v3_video,2023.2.2,MacIntel,43.47826087,,,,,,,60.102,60.276,0.232613909,-0.193645084,1,0,0,0.174,buttonFO_Right,0,35,35,35,1,X,buttonFO_Right,buttonFO_Left,,,,,,,,,,,,,,,,,,,,
,,test1,1,2020-01-01_12h00.00.000,FingerOsc_Touch_v3_video,2023.2.2,MacIntel,43.47826087,,,,,,,60.276,60.443,0.229016787,-0.202038369,1,0,0,0.166,buttonFO_Right,0,36,36,36,1,X,buttonFO_Right,buttonFO_Left,,,,,,,,,,,,,,,,,,,,
,,test1,1,2020-01-01_12h00.00.000,FingerOsc_Touch_v3_video,2023.2.2,MacIntel,43.47826087,,,,,,,60.443,60.61,0.229016787,-0.202038369,1,0,0,0.167,buttonFO_Right,0,37,37,37,1,X,buttonFO_Right,buttonFO_Left,,,,,,,,,,,,,,,,,,,,
,,test1,1,2020-01-01_12h00.00.000,FingerOsc_Touch_v3_video,2023.2.2,MacIntel,43.47826087,,,,,,,60.61,60.776,0.223021583,-0.20323741,1,0,0,0.166,buttonFO_Right,0,38,38,38,1,X,buttonFO_Right,buttonFO_Left,,,,,,,,,,,,,,,,,,,,
,,test1,1,2020-01-01_12h00.00.000,FingerOsc_Touch_v3_video,2023.2.2,MacIntel,43.47826087,,,,,,,60.776,60.943,0.220623501,-0.211630695,1,0,0,0.167,buttonFO_Right,0,39,39,39,1,X,buttonFO_Right,buttonFO_Left,,,,,,,,,,,,,,,,,,,,
,,test1,1,2020-01-01_12h00.00.000,FingerOsc_Touch_v3_video,2023.2.2,MacIntel,43.47826087,,,,,,,60.944,61.093,0.223021583,-0.210431655,1,0,0,0.149,buttonFO_Right,0,40,40,40,1,X,buttonFO_Right,buttonFO_Left,,,,,,,,,,,,,,,,,,,,
,,test1,1,2020-01-01_12h00.00.000,FingerOsc_Touch_v3_video,2023.2.2,MacIntel,43.47826087,,,,,,,61.093,61.253,0.223021583,-0.211630695,1,0,0,0.16,buttonFO_Right,0,41,41,41,1,X,buttonFO_Right,buttonFO_Left,,,,,,,,,,,,,,,,,,,,
,,test1,1,2020-01-01_12h00.00.000,FingerOsc_Touch_v3_video,2023.2.2,MacIntel,43.47826087,,,,,,,61.253,61.419,0.223021583,-0.211630695,1,0,0,0.166,buttonFO_Right,0,42,42,42,1,X,buttonFO_Right,buttonFO_Left,,,,,,,,,,,,,,,,,,,,
,,test1,1,2020-01-01_12h00.00.000,FingerOsc_Touch_v3_video,2023.2.2,MacIntel,43.47826087,,,,,,,61.419,61.577,0.223021583,-0.211630695,1,0,0,0.158,buttonFO_Right,0,43,43,43,1,X,buttonFO_Right,buttonFO_Left,,,,,,,,,,,,,,,,,,,,
,,test1,1,2020-01-01_12h00.00.000,FingerOsc_Touch_v3_video,2023.2.2,MacIntel,43.47826087,,,,,,,61.578,61.727,0.21942446,-0.208033573,1,0,0,0.148,buttonFO_Right,0,44,44,44,1,X,buttonFO_Right,buttonFO_Left,,,,,,,,,,,,,,,,,,,,
,,test1,1,2020-01-01_12h00.00.000,FingerOsc_Touch_v3_video,2023.2.2,MacIntel,43.47826087,,,,,,,61.727,61.893,0.18705036,-0.208033573,1,0,0,0.166,buttonFO_Right,0,45,45,45,1,X,buttonFO_Right,buttonFO_Left,,,,,,,,,,,,,,,,,,,,
,,test1,1,2020-01-01_12h00.00.000,FingerOsc_Touch_v3_video,2023.2.2,MacIntel,43.47826087,,,,,,,61.894,62.053,0.107913669,-0.20323741,1,0,0,0.159,buttonFO_Right,0,46,46,46,1,X,buttonFO_Right,buttonFO_Left,,,,,,,,,,,,,,,,,,,,
,,test1,1,2020-01-01_12h00.00.000,FingerOsc_Touch_v3_video,2023.2.2,MacIntel,43.47826087,,,,,,,62.054,62.219,0.055155875,-0.216426859,1,0,0,0.165,buttonFO_Right,0,47,47,47,1,X,buttonFO_Right,buttonFO_Left,,,,,,,,,,,,,,,,,,,,
,,test1,1,2020-01-01_12h00.00.000,FingerOsc_Touch_v3_video,2023.2.2,MacIntel,43.47826087,,,,,,,62.22,62.393,0.023980815,-0.209232614,1,0,0,0.173,buttonFO_Right,0,48,48,48,1,X,buttonFO_Right,buttonFO_Left,,,,,,,,,,,,,,,,,,,,
,,test1,1,2020-01-01_12h00.00.000,FingerOsc_Touch_v3_video,2023.2.2,MacIntel,43.47826087,,,,,,,62.393,62.536,0.023980815,-0.209232614,1,0,0,0.143,buttonFO_Right,0,49,49,49,1,X,buttonFO_Right,buttonFO_Left,,,,,,,,,,,,,,,,,,,,
,,test1,1,2020-01-01_12h00.00.000,FingerOsc_Touch_v3_video,2023.2.2,MacIntel,43.47826087,,,,,,,62.536,62.694,0.026378897,-0.202038369,1,0,0,0.158,buttonFO_Right,0,50,50,50,1,X,buttonFO_Right,buttonFO_Left,,,,,,,,,,,,,,,,,,,,
,,test1,1,2020-01-01_12h00.00.000,FingerOsc_Touch_v3_video,2023.2.2,MacIntel,43.47826087,,,,,,,62.695,62.836,0.025179856,-0.206834532,1,0,0,0.141,buttonFO_Right,0,51,51,51,1,X,buttonFO_Right,buttonFO_Left,,,,,,,,,,,,,,,,,,,,
,,test1,1,2020-01-01_12h00.00.000,FingerOsc_Touch_v3_video,2023.2.2,MacIntel,43.47826087,,,,,,,62.837,62.992,0.028776978,-0.198441247,1,0,0,0.155,buttonFO_Right,0,52,52,52,1,X,buttonFO_Right,buttonFO_Left,,,,,,,,,,,,,,,,,,,,
,,test1,1,2020-01-01_12h00.00.000,FingerOsc_Touch_v3_video,2023.2.2,MacIntel,43.47826087,,,,,,,62.993,63.16,0.022781775,-0.204436451,1,0,0,0.167,buttonFO_Right,0,53,53,53,1,X,buttonFO_Right,buttonFO_Left,,,,,,,,,,,,,,,,,,,,
,,test1,1,2020-01-01_12h00.00.000,FingerOsc_Touch_v3_video,2023.2.2,MacIntel,43.47826087,,,,,,,63.161,63.327,0.019184652,-0.197242206,1,0,0,0.166,buttonFO_Right,0,54,54,54,1,X,buttonFO_Right,buttonFO_Left,,,,,,,,,,,,,,,,,,,,
,,test1,1,2020-01-01_12h00.00.000,FingerOsc_Touch_v3_video,2023.2.2,MacIntel,43.47826087,,,,,,,63.328,63.486,0.026378897,-0.194844125,1,0,0,0.158,buttonFO_Right,0,55,55,55,1,X,buttonFO_Right,buttonFO_Left,,,,,,,,,,,,,,,,,,,,
,,test1,1,2020-01-01_12h00.00.000,FingerOsc_Touch_v3_video,2023.2.2,MacIntel,43.47826087,,,,,,,63.487,63.659,0.03117506,-0.186450839,1,0,0,0.172,buttonFO_Right,0,56,56,56,1,X,buttonFO_Right,buttonFO_Left,,,,,,,,,,,,,,,,,,,,
,,test1,1,2020-01-01_12h00.00.000,FingerOsc_Touch_v3_video,2023.2.2,MacIntel,43.47826087,,,,,,,63.659,63.811,0.037170264,-0.18764988,1,0,0,0.151,buttonFO_Right,0,57,57,57,1,X,buttonFO_Right,buttonFO_Left,,,,,,,,,,,,,,,,,,,,
,,test1,1,2020-01-01_12h00.00.000,FingerOsc_Touch_v3_video,2023.2.2,MacIntel,43.47826087,,,,,,,63.811,63.994,0.041966427,-0.184052758,1,0,0,0.183,buttonFO_Right,0,58,58,58,1,X,buttonFO_Right,buttonFO_Left,,,,,,,,,,,,,,,,,,,,
,,test1,1,2020-01-01_12h00.00.000,FingerOsc_Touch_v3_video,2023.2.2,MacIntel,43.47826087,,,,,,,63.995,64.161,0.053956835,-0.181654676,1,0,0,0.166,buttonFO_Right,0,59,59,59,1,X,buttonFO_Right,buttonFO_Left,,,,,,,,,,,,,,,,,,,,
,,test1,1,2020-01-01_12h00.00.000,FingerOsc_Touch_v3_video,2023.2.2,MacIntel,43.47826087,,,,,,,64.161,64.295,0.051558753,-0.191247002,1,0,0,0.134,buttonFO_Right,0,60,60,60,1,X,buttonFO_Right,buttonFO_Left,,,,,,,,,,,,,,,,,,,,
,,test1,1,2020-01-01_12h00.00.000,FingerOsc_Touch_v3_video,2023.2.2,MacIntel,43.47826087,,,,,,,64.295,64.462,0.057553957,-0.194844125,1,0,0,0.167,buttonFO_Right,0,61,61,61,1,X,buttonFO_Right,buttonFO_Left,,,,,,,,,,,,,,,,,,,,
,,test1,1,2020-01-01_12h00.00.000,FingerOsc_Touch_v3_video,2023.2.2,MacIntel,43.47826087,,,,,,,64.462,64.612,0.047961631,-0.194844125,1,0,0,0.15,buttonFO_Right,0,62,62,62,1,X,buttonFO_Right,buttonFO_Left,,,,,,,,,,,,,,,,,,,,
,,test1,1,2020-01-01_12h00.00.000,FingerOsc_Touch_v3_video,2023.2.2,MacIntel,43.47826087,,,,,,,64.612,64.754,0.03117506,-0.198441247,1,0,0,0.142,buttonFO_Right,0,63,63,63,1,X,buttonFO_Right,buttonFO_Left,,,,,,,,,,,,,,,,,,,,
,,test1,1,2020-01-01_12h00.00.000,FingerOsc_Touch_v3_video,2023.2.2,MacIntel,43.47826087,,,,,,,64.754,64.894,0.03117506,-0.191247002,1,0,0,0.14,buttonFO_Right,0,64,64,64,1,X,buttonFO_Right,buttonFO_Left,,,,,,,,,,,,,,,,,,,,
,,test1,1,2020-01-01_12h00.00.000,FingerOsc_Touch_v3_video,2023.2.2,MacIntel,43.47826087,,,,,,,64.894,65.062,0.032374101,-0.191247002,1,0,0,0.168,buttonFO_Right,0,65,65,65,1,X,buttonFO_Right,buttonFO_Left,,,,,,,,,,,,,,,,,,,,
,,test1,1,2020-01-01_12h00.00.000,FingerOsc_Touch_v3_video,2023.2.2,MacIntel,43.47826087,,,,,,,65.063,65.237,0.032374101,-0.205635492,1,0,0,0.174,buttonFO_Right,0,66,66,66,1,X,buttonFO_Right,buttonFO_Left,,,,,,,,,,,,,,,,,,,,
,,test1,1,2020-01-01_12h00.00.000,FingerOsc_Touch_v3_video,2023.2.2,MacIntel,43.47826087,,,,,,,65.238,65.402,0.056354916,-0.18764988,1,0,0,0.164,buttonFO_Right,0,67,67,67,1,X,buttonFO_Right,buttonFO_Left,,,,,,,,,,,,,,,,,,,,
,,test1,1,2020-01-01_12h00.00.000,FingerOsc_Touch_v3_video,2023.2.2,MacIntel,43.47826087,,,,,,,65.402,65.562,0.043165468,-0.192446043,1,0,0,0.16,buttonFO_Right,0,68,68,68,1,X,buttonFO_Right,buttonFO_Left,,,,,,,,,,,,,,,,,,,,
,,test1,1,2020-01-01_12h00.00.000,FingerOsc_Touch_v3_video,2023.2.2,MacIntel,43.47826087,,,,,,,65.562,65.721,0.044364508,-0.191247002,1,0,0,0.159,buttonFO_Right,0,69,69,69,1,X,buttonFO_Right,buttonFO_Left,,,,,,,,,,,,,,,,,,,,
,,test1,1,2020-01-01_12h00.00.000,FingerOsc_Touch_v3_video,2023.2.2,MacIntel,43.47826087,,,,,,,65.721,65.879,0.045563549,-0.182853717,1,0,0,0.158,buttonFO_Right,0,70,70,70,1,X,buttonFO_Right,buttonFO_Left,,,,,,,,,,,,,,,,,,,,
,,test1,1,2020-01-01_12h00.00.000,FingerOsc_Touch_v3_video,2023.2.2,MacIntel,43.47826087,,,,,,,65.879,66.021,0.045563549,-0.184052758,1,0,0,0.142,buttonFO_Right,0,71,71,71,1,X,buttonFO_Right,buttonFO_Left,,,,,,,,,,,,,,,,,,,,
,,test1,1,2020-01-01_12h00.00.000,FingerOsc_Touch_v3_video,2023.2.2,MacIntel,43.47826087,,,,,,,66.022,66.204,0.041966427,-0.186450839,1,0,0,0.182,buttonFO_Right,0,72,72,72,1,X,buttonFO_Right,buttonFO_Left,,,,,,,,,,,,,,,,,,,,
,,test1,1,2020-01-01_12h00.00.000,FingerOsc_Touch_v3_video,2023.2.2,MacIntel,43.47826087,,,,,,,66.204,66.359,0.04676259,-0.188848921,1,0,0,0.155,buttonFO_Right,0,73,73,73,1,X,buttonFO_Right,buttonFO_Left,,,,,,,,,,,,,,,,,,,,
,,test1,1,2020-01-01_12h00.00.000,FingerOsc_Touch_v3_video,2023.2.2,MacIntel,43.47826087,,,,,,,66.36,66.529,0.047961631,-0.188848921,1,0,0,0.169,buttonFO_Right,0,74,74,74,1,X,buttonFO_Right,buttonFO_Left,,,,,,,,,,,,,,,,,,,,
,,test1,1,2020-01-01_12h00.00.000,FingerOsc_Touch_v3_video,2023.2.2,MacIntel,43.47826087,,,,,,,66.529,66.705,0.044364508,-0.200839329,1,0,0,0.176,buttonFO_Right,0,75,75,75,1,X,buttonFO_Right,buttonFO_Left,,,,,,,,,,,,,,,,,,,,
,,test1,1,2020-01-01_12h00.00.000,FingerOsc_Touch_v3_video,2023.2.2,MacIntel,43.47826087,,,,,,,66.705,66.871,0.051558753,-0.212829736,1,0,0,0.166,buttonFO_Right,0,76,76,76,1,X,buttonFO_Right,buttonFO_Left,,,,,,,,,,,,,,,,,,,,
,,test1,1,2020-01-01_12h00.00.000,FingerOsc_Touch_v3_video,2023.2.2,MacIntel,43.47826087,,,,,,,66.872,67.005,0.053956835,-0.216426859,1,0,0,0.133,buttonFO_Right,0,77,77,77,1,X,buttonFO_Right,buttonFO_Left,,,,,,,,,,,,,,,,,,,,
,,test1,1,2020-01-01_12h00.00.000,FingerOsc_Touch_v3_video,2023.2.2,MacIntel,43.47826087,,,,,,,67.005,67.171,0.059952038,-0.224820144,1,0,0,0.166,buttonFO_Right,0,78,78,78,1,X,buttonFO_Right,buttonFO_Left,,,,,,,,,,,,,,,,,,,,
,,test1,1,2020-01-01_12h00.00.000,FingerOsc_Touch_v3_video,2023.2.2,MacIntel,43.47826087,,,,,,,67.172,67.296,0.058752998,-0.215227818,1,0,0,0.124,buttonFO_Right,0,79,79,79,1,X,buttonFO_Right,buttonFO_Left,,,,,,,,,,,,,,,,,,,,
,,test1,1,2020-01-01_12h00.00.000,FingerOsc_Touch_v3_video,2023.2.2,MacIntel,43.47826087,,,,,,,67.296,67.471,0.052757794,-0.215227818,1,0,0,0.173,buttonFO_Right,0,80,80,80,1,X,buttonFO_Right,buttonFO_Left,,,,,,,,,,,,,,,,,,,,
,,test1,1,2020-01-01_12h00.00.000,FingerOsc_Touch_v3_video,2023.2.2,MacIntel,43.47826087,,,,,,,67.471,67.662,0.043165468,-0.216426859,1,0,0,0.191,buttonFO_Right,0,81,81,81,1,X,buttonFO_Right,buttonFO_Left,,,,,,,,,,,,,,,,,,,,
,,test1,1,2020-01-01_12h00.00.000,FingerOsc_Touch_v3_video,2023.2.2,MacIntel,43.47826087,,,,,,,67.663,67.821,0.023980815,-0.197242206,1,0,0,0.158,buttonFO_Right,0,82,82,82,1,X,buttonFO_Right,buttonFO_Left,,,,,,,,,,,,,,,,,,,,
,,test1,1,2020-01-01_12h00.00.000,FingerOsc_Touch_v3_video,2023.2.2,MacIntel,43.47826087,,,,,,,67.822,67.955,0.027577938,-0.192446043,1,0,0,0.133,buttonFO_Right,0,83,83,83,1,X,buttonFO_Right,buttonFO_Left,,,,,,,,,,,,,,,,,,,,
,,test1,1,2020-01-01_12h00.00.000,FingerOsc_Touch_v3_video,2023.2.2,MacIntel,43.47826087,,,,,,,67.955,68.096,0.035971223,-0.180455635,1,0,0,0.141,buttonFO_Right,0,84,84,84,1,X,buttonFO_Right,buttonFO_Left,,,,,,,,,,,,,,,,,,,,
,,test1,1,2020-01-01_12h00.00.000,FingerOsc_Touch_v3_video,2023.2.2,MacIntel,43.47826087,,,,,,,68.096,68.255,0.032374101,-0.186450839,1,0,0,0.159,buttonFO_Right,0,85,85,85,1,X,buttonFO_Right,buttonFO_Left,,,,,,,,,,,,,,,,,,,,
,,test1,1,2020-01-01_12h00.00.000,FingerOsc_Touch_v3_video,2023.2.2,MacIntel,43.47826087,,,,,,,68.256,68.421,0.028776978,-0.188848921,1,0,0,0.165,buttonFO_Right,0,86,86,86,1,X,buttonFO_Right,buttonFO_Left,,,,,,,,,,,,,,,,,,,,
,,test1,1,2020-01-01_12h00.00.000,FingerOsc_Touch_v3_video,2023.2.2,MacIntel,43.47826087,,,,,,,68.422,68.589,0.027577938,-0.198441247,1,0,0,0.167,buttonFO_Right,0,87,87,87,1,X,buttonFO_Right,buttonFO_Left,,,,,,,,,,,,,,,,,,,,
,,test1,1,2020-01-01_12h00.00.000,FingerOsc_Touch_v3_video,2023.2.2,MacIntel,43.47826087,,,,,,,68.589,68.747,0.035971223,-0.200839329,1,0,0,0.158,buttonFO_Right,0,88,88,88,1,X,buttonFO_Right,buttonFO_Left,,,,,,,,,,,,,,,,,,,,
,,test1,1,2020-01-01_12h00.00.000,FingerOsc_Touch_v3_video,2023.2.2,MacIntel,43.47826087,,,,,,,68.747,68.913,0.049160671,-0.199640288,1,0,0,0.166,buttonFO_Right,0,89,89,89,1,X,buttonFO_Right,buttonFO_Left,,,,,,,,,,,,,,,,,,,,
,,test1,1,2020-01-01_12h00.00.000,FingerOsc_Touch_v3_video,2023.2.2,MacIntel,43.47826087,,,,,,,68.913,69.073,0.047961631,-0.206834532,1,0,0,0.16,buttonFO_Right,0,90,90,90,1,X,buttonFO_Right,buttonFO_Left,,,,,,,,,,,,,,,,,,,,
,,test1,1,2020-01-01_12h00.00.000,FingerOsc_Touch_v3_video,2023.2.2,MacIntel,43.47826087,,,,,,,69.073,69.255,0.038369305,-0.198441247,1,0,0,0.182,buttonFO_Right,0,91,91,91,1,X,buttonFO_Right,buttonFO_Left,,,,,,,,,,,,,,,,,,,,
,,test1,1,2020-01-01_12h00.00.000,FingerOsc_Touch_v3_video,2023.2.2,MacIntel,43.47826087,,,,,,,69.256,69.428,0.033573141,-0.186450839,1,0,0,0.172,buttonFO_Right,0,92,92,92,1,X,buttonFO_Right,buttonFO_Left,,,,,,,,,,,,,,,,,,,,
,,test1,1,2020-01-01_12h00.00.000,FingerOsc_Touch_v3_video,2023.2.2,MacIntel,43.47826087,,,,,,,69.428,69.595,0.029976019,-0.185251799,1,0,0,0.167,buttonFO_Right,0,93,93,93,1,X,buttonFO_Right,buttonFO_Left,,,,,,,,,,,,,,,,,,,,
,,test1,1,2020-01-01_12h00.00.000,FingerOsc_Touch_v3_video,2023.2.2,MacIntel,43.47826087,,,,,,,69.596,69.78,0.03117506,-0.199640288,1,0,0,0.184,buttonFO_Right,0,94,94,94,1,X,buttonFO_Right,buttonFO_Left,,,,,,,,,,,,,,,,,,,,
,,test1,1,2020-01-01_12h00.00.000,FingerOsc_Touch_v3_video,2023.2.2,MacIntel,43.47826087,,,,,,,69.781,69.956,0.035971223,-0.205635492,1,0,0,0.175,buttonFO_Right,0,95,95,95,1,X,buttonFO_Right,buttonFO_Left,,,,,,,,,,,,,,,,,,,,
,,test1,1,2020-01-01_12h00.00.000,FingerOsc_Touch_v3_video,2023.2.2,MacIntel,43.47826087,,,,,,,69.956,70.139,0.028776978,-0.199640288,1,0,0,0.183,buttonFO_Right,0,96,96,96,1,X,buttonFO_Right,buttonFO_Left,,,,,,,,,,,,,,,,,,,,
,,test1,1,2020-01-01_12h00.00.000,FingerOsc_Touch_v3_video,2023.2.2,MacIntel,43.47826087,,,,,,,70.14,70.313,0.03117506,-0.18764988,1,0,0,0.173,buttonFO_Right,0,97,97,97,1,X,buttonFO_Right,buttonFO_Left,,,,,,,,,,,,,,,,,,,,
,,test1,1,2020-01-01_12h00.00.000,FingerOsc_Touch_v3_video,2023.2.2,MacIntel,43.47826087,,,,,,,70.313,70.489,0.040767386,-0.185251799,1,0,0,0.176,buttonFO_Right,0,98,98,98,1,X,buttonFO_Right,buttonFO_Left,,,,,,,,,,,,,,,,,,,,
,,test1,1,2020-01-01_12h00.00.000,FingerOsc_Touch_v3_video,2023.2.2,MacIntel,43.47826087,,,,,,,70.489,70.647,0.041966427,-0.185251799,1,0,0,0.158,buttonFO_Right,0,99,99,99,1,X,buttonFO_Right,buttonFO_Left,,,,,,,,,,,,,,,,,,,,
,,test1,1,2020-01-01_12h00.00.000,FingerOsc_Touch_v3_video,2023.2.2,MacIntel,43.47826087,,,,,,,70.648,70.83,0.034772182,-0.196043165,1,0,0,0.182,buttonFO_Right,0,100,100,100,1,X,buttonFO_Right,buttonFO_Left,,,,,,,,,,,,,,,,,,,,
,,test1,1,2020-01-01_12h00.00.000,FingerOsc_Touch_v3_video,2023.2.2,MacIntel,43.47826087,,,,,,,70.831,70.998,0.03117506,-0.209232614,1,0,0,0.166,buttonFO_Right,0,101,101,101,1,X,buttonFO_Right,buttonFO_Left,,,,,,,,,,,,,,,,,,,,
,,test1,1,2020-01-01_12h00.00.000,FingerOsc_Touch_v3_video,2023.2.2,MacIntel,43.47826087,,,,,,,70.998,71.156,0.040767386,-0.191247002,1,0,0,0.158,buttonFO_Right,0,102,102,102,1,X,buttonFO_Right,buttonFO_Left,,,,,,,,,,,,,,,,,,,,
,,test1,1,2020-01-01_12h00.00.000,FingerOsc_Touch_v3_video,2023.2.2,MacIntel,43.47826087,,,,,,,71.156,71.34,0.037170264,-0.180455635,1,0,0,0.184,buttonFO_Right,0,103,103,103,1,X,buttonFO_Right,buttonFO_Left,,,,,,,,,,,,,,,,,,,,
,,test1,1,2020-01-01_12h00.00.000,FingerOsc_Touch_v3_video,2023.2.2,MacIntel,43.47826087,,,,,,,71.34,71.506,0.027577938,-0.179256595,1,0,0,0.166,buttonFO_Right,0,104,104,104,1,X,buttonFO_Right,buttonFO_Left,,,,,,,,,,,,,,,,,,,,
,,test1,1,2020-01-01_12h00.00.000,FingerOsc_Touch_v3_video,2023.2.2,MacIntel,43.47826087,,,,,,,71.507,71.681,0.021582734,-0.186450839,1,0,0,0.174,buttonFO_Right,0,105,105,105,1,X,buttonFO_Right,buttonFO_Left,,,,,,,,,,,,,,,,,,,,
,,test1,1,2020-01-01_12h00.00.000,FingerOsc_Touch_v3_video,2023.2.2,MacIntel,43.47826087,,,,,,,71.681,71.84,0.016786571,-0.194844125,1,0,0,0.159,buttonFO_Right,0,106,106,106,1,X,buttonFO_Right,buttonFO_Left,,,,,,,,,,,,,,,,,,,,
,,test1,1,2020-01-01_12h00.00.000,FingerOsc_Touch_v3_video,2023.2.2,MacIntel,43.47826087,,,,,,,71.84,72.006,0.021582734,-0.204436451,1,0,0,0.166,buttonFO_Right,0,107,107,107,1,X,buttonFO_Right,buttonFO_Left,,,,,,,,,,,,,,,,,,,,
,,test1,1,2020-01-01_12h00.00.000,FingerOsc_Touch_v3_video,2023.2.2,MacIntel,43.47826087,,,,,,,72.007,72.198,0.019184652,-0.196043165,1,0,0,0.191,buttonFO_Right,0,108,108,108,1,X,buttonFO_Right,buttonFO_Left,,,,,,,,,,,,,,,,,,,,
,,test1,1,2020-01-01_12h00.00.000,FingerOsc_Touch_v3_video,2023.2.2,MacIntel,43.47826087,,,,,,,72.198,72.365,0.019184652,-0.191247002,1,0,0,0.166,buttonFO_Right,0,109,109,109,1,X,buttonFO_Right,buttonFO_Left,,,,,,,,,,,,,,,,,,,,
,,test1,1,2020-01-01_12h00.00.000,FingerOsc_Touch_v3_video,2023.2.2,MacIntel,43.47826087,,,,,,,72.365,72.523,0.019184652,-0.186450839,1,0,0,0.158,buttonFO_Right,0,110,110,110,1,X,buttonFO_Right,buttonFO_Left,,,,,,,,,,,,,,,,,,,,
,,test1,1,2020-01-01_12h00.00.000,FingerOsc_Touch_v3_video,2023.2.2,MacIntel,43.47826087,,,,,,,72.523,72.681,0.027577938,-0.17206235,1,0,0,0.158,buttonFO_Right,0,111,111,111,1,X,buttonFO_Right,buttonFO_Left,,,,,,,,,,,,,,,,,,,,
,,test1,1,2020-01-01_12h00.00.000,FingerOsc_Touch_v3_video,2023.2.2,MacIntel,43.47826087,,,,,,,72.682,72.865,0.025179856,-0.186450839,1,0,0,0.183,buttonFO_Right,0,112,112,112,1,X,buttonFO_Right,buttonFO_Left,,,,,,,,,,,,,,,,,,,,
,,test1,1,2020-01-01_12h00.00.000,FingerOsc_Touch_v3_video,2023.2.2,MacIntel,43.47826087,,,,,,,72.865,73.032,0.026378897,-0.200839329,1,0,0,0.167,buttonFO_Right,0,113,113,113,1,X,buttonFO_Right,buttonFO_Left,,,,,,,,,,,,,,,,,,,,
,,test1,1,2020-01-01_12h00.00.000,FingerOsc_Touch_v3_video,2023.2.2,MacIntel,43.47826087,,,,,,,73.032,73.165,0.028776978,-0.208033573,1,0,0,0.133,buttonFO_Right,0,114,114,114,1,X,buttonFO_Right,buttonFO_Left,,,,,,,,,,,,,,,,,,,,
,,test1,1,2020-01-01_12h00.00.000,FingerOsc_Touch_v3_video,2023.2.2,MacIntel,43.47826087,,,,,,,73.165,73.332,0.027577938,-0.191247002,1,0,0,0.166,buttonFO_Right,0,115,115,115,1,X,buttonFO_Right,buttonFO_Left,,,,,,,,,,,,,,,,,,,,
,,test1,1,2020-01-01_12h00.00.000,FingerOsc_Touch_v3_video,2023.2.2,MacIntel,43.47826087,,,,,,,73.332,73.523,0.029976019,-0.191247002,1,0,0,0.191,buttonFO_Right,0,116,116,116,1,X,buttonFO_Right,buttonFO_Left,,,,,,,,,,,,,,,,,,,,
,,test1,1,2020-01-01_12h00.00.000,FingerOsc_Touch_v3_video,2023.2.2,MacIntel,43.47826087,,,,,,,73.523,73.682,0.038369305,-0.180455635,1,0,0,0.159,buttonFO_Right,0,117,117,117,1,X,buttonFO_Right,buttonFO_Left,,,,,,,,,,,,,,,,,,,,
,,test1,1,2020-01-01_12h00.00.000,FingerOsc_Touch_v3_video,2023.2.2,MacIntel,43.47826087,,,,,,,73.682,73.865,0.039568345,-0.178057554,1,0,0,0.183,buttonFO_Right,0,118,118,118,1,X,buttonFO_Right,buttonFO_Left,,,,,,,,,,,,,,,,,,,,
,,test1,1,2020-01-01_12h00.00.000,FingerOsc_Touch_v3_video,2023.2.2,MacIntel,43.47826087,,,,,,,73.865,74.041,0.027577938,-0.188848921,1,0,0,0.175,buttonFO_Right,0,119,119,119,1,X,buttonFO_Right,buttonFO_Left,,,,,,,,,,,,,,,,,,,,
,,test1,1,2020-01-01_12h00.00.000,FingerOsc_Touch_v3_video,2023.2.2,MacIntel,43.47826087,,,,,,,74.041,74.199,0.037170264,-0.196043165,1,0,0,0.158,buttonFO_Right,0,120,120,120,1,X,buttonFO_Right,buttonFO_Left,,,,,,,,,,,,,,,,,,,,
,,test1,1,2020-01-01_12h00.00.000,FingerOsc_Touch_v3_video,2023.2.2,MacIntel,43.47826087,,,,,,,74.199,74.366,0.041966427,-0.199640288,1,0,0,0.166,buttonFO_Right,0,121,121,121,1,X,buttonFO_Right,buttonFO_Left,,,,,,,,,,,,,,,,,,,,
,,test1,1,2020-01-01_12h00.00.000,FingerOsc_Touch_v3_video,2023.2.2,MacIntel,43.47826087,,,,,,,74.366,74.564,0.019184652,-0.202038369,1,0,0,0.198,buttonFO_Right,0,122,122,122,1,X,buttonFO_Right,buttonFO_Left,,,,,,,,,,,,,,,,,,,,
,,test1,1,2020-01-01_12h00.00.000,FingerOsc_Touch_v3_video,2023.2.2,MacIntel,43.47826087,,,,,,,74.565,74.731,0.025179856,-0.194844125,1,0,0,0.166,buttonFO_Right,0,123,123,123,1,X,buttonFO_Right,buttonFO_Left,,,,,,,,,,,,,,,,,,,,
,,test1,1,2020-01-01_12h00.00.000,FingerOsc_Touch_v3_video,2023.2.2,MacIntel,43.47826087,,,,,,,74.732,74.924,0.019184652,-0.197242206,1,0,0,0.192,buttonFO_Right,0,124,124,124,1,X,buttonFO_Right,buttonFO_Left,,,,,,,,,,,,,,,,,,,,
,,test1,1,2020-01-01_12h00.00.000,FingerOsc_Touch_v3_video,2023.2.2,MacIntel,43.47826087,,,,,,,74.925,75.084,0.020383693,-0.209232614,1,0,0,0.159,buttonFO_Right,0,125,125,125,1,X,buttonFO_Right,buttonFO_Left,,,,,,,,,,,,,,,,,,,,
,,test1,1,2020-01-01_12h00.00.000,FingerOsc_Touch_v3_video,2023.2.2,MacIntel,43.47826087,,,,,,,75.085,75.266,0.019184652,-0.20323741,1,0,0,0.181,buttonFO_Right,0,126,126,126,1,X,buttonFO_Right,buttonFO_Left,,,,,,,,,,,,,,,,,,,,
,,test1,1,2020-01-01_12h00.00.000,FingerOsc_Touch_v3_video,2023.2.2,MacIntel,43.47826087,,,,,,,75.266,75.408,0.025179856,-0.194844125,1,0,0,0.142,buttonFO_Right,0,127,127,127,1,X,buttonFO_Right,buttonFO_Left,,,,,,,,,,,,,,,,,,,,
,,test1,1,2020-01-01_12h00.00.000,FingerOsc_Touch_v3_video,2023.2.2,MacIntel,43.47826087,,,,,,,75.409,75.582,0.03117506,-0.182853717,1,0,0,0.173,buttonFO_Right,0,128,128,128,1,X,buttonFO_Right,buttonFO_Left,,,,,,,,,,,,,,,,,,,,
,,test1,1,2020-01-01_12h00.00.000,FingerOsc_Touch_v3_video,2023.2.2,MacIntel,43.47826087,,,,,,,75.582,75.741,0.025179856,-0.192446043,1,0,0,0.159,buttonFO_Right,0,129,129,129,1,X,buttonFO_Right,buttonFO_Left,,,,,,,,,,,,,,,,,,,,
,,test1,1,2020-01-01_12h00.00.000,FingerOsc_Touch_v3_video,2023.2.2,MacIntel,43.47826087,,,,,,,75.742,75.932,0.027577938,-0.196043165,1,0,0,0.19,buttonFO_Right,0,130,130,130,1,X,buttonFO_Right,buttonFO_Left,,,,,,,,,,,,,,,,,,,,
,,test1,1,2020-01-01_12h00.00.000,FingerOsc_Touch_v3_video,2023.2.2,MacIntel,43.47826087,,,,,,,75.932,76.116,0.033573141,-0.197242206,1,0,0,0.184,buttonFO_Right,0,131,131,131,1,X,buttonFO_Right,buttonFO_Left,,,,,,,,,,,,,,,,,,,,
,,test1,1,2020-01-01_12h00.00.000,FingerOsc_Touch_v3_video,2023.2.2,MacIntel,43.47826087,,,,,,,76.117,76.284,0.043165468,-0.198441247,1,0,0,0.166,buttonFO_Right,0,132,132,132,1,X,buttonFO_Right,buttonFO_Left,,,,,,,,,,,,,,,,,,,,
,,test1,1,2020-01-01_12h00.00.000,FingerOsc_Touch_v3_video,2023.2.2,MacIntel,43.47826087,,,,,,,76.284,76.459,0.045563549,-0.197242206,1,0,0,0.175,buttonFO_Right,0,133,133,133,1,X,buttonFO_Right,buttonFO_Left,,,,,,,,,,,,,,,,,,,,
,,test1,1,2020-01-01_12h00.00.000,FingerOsc_Touch_v3_video,2023.2.2,MacIntel,43.47826087,,,,,,,76.459,76.633,0.041966427,-0.200839329,1,0,0,0.174,buttonFO_Right,0,134,134,134,1,X,buttonFO_Right,buttonFO_Left,,,,,,,,,,,,,,,,,,,,
,,test1,1,2020-01-01_12h00.00.000,FingerOsc_Touch_v3_video,2023.2.2,MacIntel,43.47826087,,,,,,,76.634,76.807,0.047961631,-0.199640288,1,0,0,0.173,buttonFO_Right,0,135,135,135,1,X,buttonFO_Right,buttonFO_Left,,,,,,,,,,,,,,,,,,,,
,,test1,1,2020-01-01_12h00.00.000,FingerOsc_Touch_v3_video,2023.2.2,MacIntel,43.47826087,,,,,,,76.807,76.992,0.057553957,-0.196043165,1,0,0,0.185,buttonFO_Right,0,136,136,136,1,X,buttonFO_Right,buttonFO_Left,,,,,,,,,,,,,,,,,,,,
,,test1,1,2020-01-01_12h00.00.000,FingerOsc_Touch_v3_video,2023.2.2,MacIntel,43.47826087,,,,,,,76.992,77.167,0.056354916,-0.204436451,1,0,0,0.175,buttonFO_Right,0,137,137,137,1,X,buttonFO_Right,buttonFO_Left,,,,,,,,,,,,,,,,,,,,
,,test1,1,2020-01-01_12h00.00.000,FingerOsc_Touch_v3_video,2023.2.2,MacIntel,43.47826087,,,,,,,77.167,77.342,0.044364508,-0.199640288,1,0,0,0.175,buttonFO_Right,0,138,138,138,1,X,buttonFO_Right,buttonFO_Left,,,,,,,,,,,,,,,,,,,,
,,test1,1,2020-01-01_12h00.00.000,FingerOsc_Touch_v3_video,2023.2.2,MacIntel,43.47826087,,,,,,,77.343,77.5,0.044364508,-0.20323741,1,0,0,0.157,buttonFO_Right,0,139,139,139,1,X,buttonFO_Right,buttonFO_Left,,,,,,,,,,,,,,,,,,,,
,,test1,1,2020-01-01_12h00.00.000,FingerOsc_Touch_v3_video,2023.2.2,MacIntel,43.47826087,,,,,,,77.501,77.668,0.050359712,-0.192446043,1,0,0,0.167,buttonFO_Right,0,140,140,140,1,X,buttonFO_Right,buttonFO_Left,,,,,,,,,,,,,,,,,,,,
,,test1,1,2020-01-01_12h00.00.000,FingerOsc_Touch_v3_video,2023.2.2,MacIntel,43.47826087,,,,,,,77.669,77.859,0.051558753,-0.186450839,1,0,0,0.19,buttonFO_Right,0,141,141,141,1,X,buttonFO_Right,buttonFO_Left,,,,,,,,,,,,,,,,,,,,
,,test1,1,2020-01-01_12h00.00.000,FingerOsc_Touch_v3_video,2023.2.2,MacIntel,43.47826087,,,,,,,77.859,78.043,0.040767386,-0.190047962,1,0,0,0.183,buttonFO_Right,0,142,142,142,1,X,buttonFO_Right,buttonFO_Left,,,,,,,,,,,,,,,,,,,,
,,test1,1,2020-01-01_12h00.00.000,FingerOsc_Touch_v3_video,2023.2.2,MacIntel,43.47826087,,,,,,,,,,,,,,,,,,,,,X,buttonFO_Right,buttonFO_Left,78.045,83.043,83.044,97.049,97.064,97.352,-0.153477218,-0.21882494,1,0,0,0.287,buttonFO_Left,0,0,0,0,1,,
,,test1,1,2020-01-01_12h00.00.000,FingerOsc_Touch_v3_video,2023.2.2,MacIntel,43.47826087,,,,,,,,,,,,,,,,,,,,,X,buttonFO_Right,buttonFO_Left,,,,,97.352,97.55,-0.178657074,-0.202038369,1,0,0,0.198,buttonFO_Left,0,1,1,1,1,,
,,test1,1,2020-01-01_12h00.00.000,FingerOsc_Touch_v3_video,2023.2.2,MacIntel,43.47826087,,,,,,,,,,,,,,,,,,,,,X,buttonFO_Right,buttonFO_Left,,,,,97.551,97.709,-0.1882494,-0.202038369,1,0,0,0.158,buttonFO_Left,0,2,2,2,1,,
,,test1,1,2020-01-01_12h00.00.000,FingerOsc_Touch_v3_video,2023.2.2,MacIntel,43.47826087,,,,,,,,,,,,,,,,,,,,,X,buttonFO_Right,buttonFO_Left,,,,,97.71,97.901,-0.18705036,-0.204436451,1,0,0,0.191,buttonFO_Left,0,3,3,3,1,,
,,test1,1,2020-01-01_12h00.00.000,FingerOsc_Touch_v3_video,2023.2.2,MacIntel,43.47826087,,,,,,,,,,,,,,,,,,,,,X,buttonFO_Right,buttonFO_Left,,,,,97.901,98.069,-0.182254197,-0.20323741,1,0,0,0.168,buttonFO_Left,0,4,4,4,1,,
,,test1,1,2020-01-01_12h00.00.000,FingerOsc_Touch_v3_video,2023.2.2,MacIntel,43.47826087,,,,,,,,,,,,,,,,,,,,,X,buttonFO_Right,buttonFO_Left,,,,,98.07,98.225,-0.191846523,-0.199640288,1,0,0,0.155,buttonFO_Left,0,5,5,5,1,,
,,test1,1,2020-01-01_12h00.00.000,FingerOsc_Touch_v3_video,2023.2.2,MacIntel,43.47826087,,,,,,,,,,,,,,,,,,,,,X,buttonFO_Right,buttonFO_Left,,,,,98.226,98.393,-0.196642686,-0.198441247,1,0,0,0.166,buttonFO_Left,0,6,6,6,1,,
,,test1,1,2020-01-01_12h00.00.000,FingerOsc_Touch_v3_video,2023.2.2,MacIntel,43.47826087,,,,,,,,,,,,,,,,,,,,,X,buttonFO_Right,buttonFO_Left,,,,,98.393,98.575,-0.194244604,-0.199640288,1,0,0,0.182,buttonFO_Left,0,7,7,7,1,,
,,test1,1,2020-01-01_12h00.00.000,FingerOsc_Touch_v3_video,2023.2.2,MacIntel,43.47826087,,,,,,,,,,,,,,,,,,,,,X,buttonFO_Right,buttonFO_Left,,,,,98.576,98.759,-0.201438849,-0.196043165,1,0,0,0.183,buttonFO_Left,0,8,8,8,1,,
,,test1,1,2020-01-01_12h00.00.000,FingerOsc_Touch_v3_video,2023.2.2,MacIntel,43.47826087,,,,,,,,,,,,,,,,,,,,,X,buttonFO_Right,buttonFO_Left,,,,,98.76,98.926,-0.205035971,-0.196043165,1,0,0,0.166,buttonFO_Left,0,9,9,9,1,,
,,test1,1,2020-01-01_12h00.00.000,FingerOsc_Touch_v3_video,2023.2.2,MacIntel,43.47826087,,,,,,,,,,,,,,,,,,,,,X,buttonFO_Right,buttonFO_Left,,,,,98.927,99.135,-0.223021583,-0.192446043,1,0,0,0.207,buttonFO_Left,0,10,10,10,1,,
,,test1,1,2020-01-01_12h00.00.000,FingerOsc_Touch_v3_video,2023.2.2,MacIntel,43.47826087,,,,,,,,,,,,,,,,,,,,,X,buttonFO_Right,buttonFO_Left,,,,,99.135,99.302,-0.236211031,-0.190047962,1,0,0,0.167,buttonFO_Left,0,11,11,11,1,,
,,test1,1,2020-01-01_12h00.00.000,FingerOsc_Touch_v3_video,2023.2.2,MacIntel,43.47826087,,,,,,,,,,,,,,,,,,,,,X,buttonFO_Right,buttonFO_Left,,,,,99.302,99.476,-0.239808153,-0.192446043,1,0,0,0.174,buttonFO_Left,0,12,12,12,1,,
,,test1,1,2020-01-01_12h00.00.000,FingerOsc_Touch_v3_video,2023.2.2,MacIntel,43.47826087,,,,,,,,,,,,,,,,,,,,,X,buttonFO_Right,buttonFO_Left,,,,,99.477,99.668,-0.229016787,-0.196043165,1,0,0,0.19,buttonFO_Left,0,13,13,13,1,,
,,test1,1,2020-01-01_12h00.00.000,FingerOsc_Touch_v3_video,2023.2.2,MacIntel,43.47826087,,,,,,,,,,,,,,,,,,,,,X,buttonFO_Right,buttonFO_Left,,,,,99.668,99.869,-0.205035971,-0.198441247,1,0,0,0.2,buttonFO_Left,0,14,14,14,1,,
,,test1,1,2020-01-01_12h00.00.000,FingerOsc_Touch_v3_video,2023.2.2,MacIntel,43.47826087,,,,,,,,,,,,,,,,,,,,,X,buttonFO_Right,buttonFO_Left,,,,,99.869,100.069,-0.159472422,-0.210431655,1,0,0,0.199,buttonFO_Left,0,15,15,15,1,,
,,test1,1,2020-01-01_12h00.00.000,FingerOsc_Touch_v3_video,2023.2.2,MacIntel,43.47826087,,,,,,,,,,,,,,,,,,,,,X,buttonFO_Right,buttonFO_Left,,,,,100.069,100.251,-0.152278177,-0.215227818,1,0,0,0.182,buttonFO_Left,0,16,16,16,1,,
,,test1,1,2020-01-01_12h00.00.000,FingerOsc_Touch_v3_video,2023.2.2,MacIntel,43.47826087,,,,,,,,,,,,,,,,,,,,,X,buttonFO_Right,buttonFO_Left,,,,,100.252,100.46,-0.157074341,-0.215227818,1,0,0,0.207,buttonFO_Left,0,17,17,17,1,,
,,test1,1,2020-01-01_12h00.00.000,FingerOsc_Touch_v3_video,2023.2.2,MacIntel,43.47826087,,,,,,,,,,,,,,,,,,,,,X,buttonFO_Right,buttonFO_Left,,,,,100.46,100.643,-0.153477218,-0.215227818,1,0,0,0.183,buttonFO_Left,0,18,18,18,1,,
,,test1,1,2020-01-01_12h00.00.000,FingerOsc_Touch_v3_video,2023.2.2,MacIntel,43.47826087,,,,,,,,,,,,,,,,,,,,,X,buttonFO_Right,buttonFO_Left,,,,,100.644,100.853,-0.17146283,-0.217625899,1,0,0,0.208,buttonFO_Left,0,19,19,19,1,,
,,test1,1,2020-01-01_12h00.00.000,FingerOsc_Touch_v3_video,2023.2.2,MacIntel,43.47826087,,,,,,,,,,,,,,,,,,,,,X,buttonFO_Right,buttonFO_Left,,,,,100.853,101.052,-0.196642686,-0.214028777,1,0,0,0.199,buttonFO_Left,0,20,20,20,1,,
,,test1,1,2020-01-01_12h00.00.000,FingerOsc_Touch_v3_video,2023.2.2,MacIntel,43.47826087,,,,,,,,,,,,,,,,,,,,,X,buttonFO_Right,buttonFO_Left,,,,,101.052,101.26,-0.195443645,-0.215227818,1,0,0,0.208,buttonFO_Left,0,21,21,21,1,,
,,test1,1,2020-01-01_12h00.00.000,FingerOsc_Touch_v3_video,2023.2.2,MacIntel,43.47826087,,,,,,,,,,,,,,,,,,,,,X,buttonFO_Right,buttonFO_Left,,,,,101.261,101.461,-0.205035971,-0.209232614,1,0,0,0.2,buttonFO_Left,0,22,22,22,1,,
,,test1,1,2020-01-01_12h00.00.000,FingerOsc_Touch_v3_video,2023.2.2,MacIntel,43.47826087,,,,,,,,,,,,,,,,,,,,,X,buttonFO_Right,buttonFO_Left,,,,,101.461,101.653,-0.212230216,-0.209232614,1,0,0,0.192,buttonFO_Left,0,23,23,23,1,,
,,test1,1,2020-01-01_12h00.00.000,FingerOsc_Touch_v3_video,2023.2.2,MacIntel,43.47826087,,,,,,,,,,,,,,,,,,,,,X,buttonFO_Right,buttonFO_Left,,,,,101.653,101.836,-0.217026379,-0.211630695,1,0,0,0.183,buttonFO_Left,0,24,24,24,1,,
,,test1,1,2020-01-01_12h00.00.000,FingerOsc_Touch_v3_video,2023.2.2,MacIntel,43.47826087,,,,,,,,,,,,,,,,,,,,,X,buttonFO_Right,buttonFO_Left,,,,,101.837,102.044,-0.221822542,-0.215227818,1,0,0,0.207,buttonFO_Left,0,25,25,25,1,,
,,test1,1,2020-01-01_12h00.00.000,FingerOsc_Touch_v3_video,2023.2.2,MacIntel,43.47826087,,,,,,,,,,,,,,,,,,,,,X,buttonFO_Right,buttonFO_Left,,,,,102.045,102.244,-0.214628297,-0.220023981,1,0,0,0.199,buttonFO_Left,0,26,26,26,1,,
,,test1,1,2020-01-01_12h00.00.000,FingerOsc_Touch_v3_video,2023.2.2,MacIntel,43.47826087,,,,,,,,,,,,,,,,,,,,,X,buttonFO_Right,buttonFO_Left,,,,,102.244,102.453,-0.130695444,-0.227218225,1,0,0,0.209,buttonFO_Left,0,27,27,27,1,,
,,test1,1,2020-01-01_12h00.00.000,FingerOsc_Touch_v3_video,2023.2.2,MacIntel,43.47826087,,,,,,,,,,,,,,,,,,,,,X,buttonFO_Right,buttonFO_Left,,,,,102.453,102.645,-0.087529976,-0.226019185,1,0,0,0.191,buttonFO_Left,0,28,28,28,1,,
,,test1,1,2020-01-01_12h00.00.000,FingerOsc_Touch_v3_video,2023.2.2,MacIntel,43.47826087,,,,,,,,,,,,,,,,,,,,,X,buttonFO_Right,buttonFO_Left,,,,,102.645,102.86,-0.09352518,-0.223621103,1,0,0,0.215,buttonFO_Left,0,29,29,29,1,,
,,test1,1,2020-01-01_12h00.00.000,FingerOsc_Touch_v3_video,2023.2.2,MacIntel,43.47826087,,,,,,,,,,,,,,,,,,,,,X,buttonFO_Right,buttonFO_Left,,,,,102.861,103.061,-0.119904077,-0.217625899,1,0,0,0.2,buttonFO_Left,0,30,30,30,1,,
,,test1,1,2020-01-01_12h00.00.000,FingerOsc_Touch_v3_video,2023.2.2,MacIntel,43.47826087,,,,,,,,,,,,,,,,,,,,,X,buttonFO_Right,buttonFO_Left,,,,,103.061,103.27,-0.191846523,-0.199640288,1,0,0,0.208,buttonFO_Left,0,31,31,31,1,,
,,test1,1,2020-01-01_12h00.00.000,FingerOsc_Touch_v3_video,2023.2.2,MacIntel,43.47826087,,,,,,,,,,,,,,,,,,,,,X,buttonFO_Right,buttonFO_Left,,,,,103.27,103.47,-0.194244604,-0.202038369,1,0,0,0.2,buttonFO_Left,0,32,32,32,1,,
,,test1,1,2020-01-01_12h00.00.000,FingerOsc_Touch_v3_video,2023.2.2,MacIntel,43.47826087,,,,,,,,,,,,,,,,,,,,,X,buttonFO_Right,buttonFO_Left,,,,,103.47,103.67,-0.205035971,-0.20323741,1,0,0,0.199,buttonFO_Left,0,33,33,33,1,,
,,test1,1,2020-01-01_12h00.00.000,FingerOsc_Touch_v3_video,2023.2.2,MacIntel,43.47826087,,,,,,,,,,,,,,,,,,,,,X,buttonFO_Right,buttonFO_Left,,,,,103.67,103.861,-0.221822542,-0.198441247,1,0,0,0.19,buttonFO_Left,0,34,34,34,1,,
,,test1,1,2020-01-01_12h00.00.000,FingerOsc_Touch_v3_video,2023.2.2,MacIntel,43.47826087,,,,,,,,,,,,,,,,,,,,,X,buttonFO_Right,buttonFO_Left,,,,,103.861,104.079,-0.220623501,-0.200839329,1,0,0,0.218,buttonFO_Left,0,35,35,35,1,,
,,test1,1,2020-01-01_12h00.00.000,FingerOsc_Touch_v3_video,2023.2.2,MacIntel,43.47826087,,,,,,,,,,,,,,,,,,,,,X,buttonFO_Right,buttonFO_Left,,,,,104.079,104.287,-0.220623501,-0.196043165,1,0,0,0.208,buttonFO_Left,0,36,36,36,1,,
,,test1,1,2020-01-01_12h00.00.000,FingerOsc_Touch_v3_video,2023.2.2,MacIntel,43.47826087,,,,,,,,,,,,,,,,,,,,,X,buttonFO_Right,buttonFO_Left,,,,,104.288,104.511,-0.214628297,-0.197242206,1,0,0,0.223,buttonFO_Left,0,37,37,37,1,,
,,test1,1,2020-01-01_12h00.00.000,FingerOsc_Touch_v3_video,2023.2.2,MacIntel,43.47826087,,,,,,,,,,,,,,,,,,,,,X,buttonFO_Right,buttonFO_Left,,,,,104.512,104.712,-0.220623501,-0.192446043,1,0,0,0.2,buttonFO_Left,0,38,38,38,1,,
,,test1,1,2020-01-01_12h00.00.000,FingerOsc_Touch_v3_video,2023.2.2,MacIntel,43.47826087,,,,,,,,,,,,,,,,,,,,,X,buttonFO_Right,buttonFO_Left,,,,,104.712,104.929,-0.208633094,-0.196043165,1,0,0,0.217,buttonFO_Left,0,39,39,39,1,,
,,test1,1,2020-01-01_12h00.00.000,FingerOsc_Touch_v3_video,2023.2.2,MacIntel,43.47826087,,,,,,,,,,,,,,,,,,,,,X,buttonFO_Right,buttonFO_Left,,,,,104.929,105.171,-0.189448441,-0.197242206,1,0,0,0.242,buttonFO_Left,0,40,40,40,1,,
,,test1,1,2020-01-01_12h00.00.000,FingerOsc_Touch_v3_video,2023.2.2,MacIntel,43.47826087,,,,,,,,,,,,,,,,,,,,,X,buttonFO_Right,buttonFO_Left,,,,,105.172,105.37,-0.182254197,-0.190047962,1,0,0,0.198,buttonFO_Left,0,41,41,41,1,,
,,test1,1,2020-01-01_12h00.00.000,FingerOsc_Touch_v3_video,2023.2.2,MacIntel,43.47826087,,,,,,,,,,,,,,,,,,,,,X,buttonFO_Right,buttonFO_Left,,,,,105.371,105.545,-0.189448441,-0.178057554,1,0,0,0.174,buttonFO_Left,0,42,42,42,1,,
,,test1,1,2020-01-01_12h00.00.000,FingerOsc_Touch_v3_video,2023.2.2,MacIntel,43.47826087,,,,,,,,,,,,,,,,,,,,,X,buttonFO_Right,buttonFO_Left,,,,,105.546,105.743,-0.1882494,-0.178057554,1,0,0,0.197,buttonFO_Left,0,43,43,43,1,,
,,test1,1,2020-01-01_12h00.00.000,FingerOsc_Touch_v3_video,2023.2.2,MacIntel,43.47826087,,,,,,,,,,,,,,,,,,,,,X,buttonFO_Right,buttonFO_Left,,,,,105.743,105.929,-0.197841727,-0.179256595,1,0,0,0.186,buttonFO_Left,0,44,44,44,1,,
,,test1,1,2020-01-01_12h00.00.000,FingerOsc_Touch_v3_video,2023.2.2,MacIntel,43.47826087,,,,,,,,,,,,,,,,,,,,,X,buttonFO_Right,buttonFO_Left,,,,,105.929,106.129,-0.193045564,-0.181654676,1,0,0,0.2,buttonFO_Left,0,45,45,45,1,,
,,test1,1,2020-01-01_12h00.00.000,FingerOsc_Touch_v3_video,2023.2.2,MacIntel,43.47826087,,,,,,,,,,,,,,,,,,,,,X,buttonFO_Right,buttonFO_Left,,,,,106.13,106.329,-0.194244604,-0.184052758,1,0,0,0.199,buttonFO_Left,0,46,46,46,1,,
,,test1,1,2020-01-01_12h00.00.000,FingerOsc_Touch_v3_video,2023.2.2,MacIntel,43.47826087,,,,,,,,,,,,,,,,,,,,,X,buttonFO_Right,buttonFO_Left,,,,,106.33,106.538,-0.20263789,-0.184052758,1,0,0,0.208,buttonFO_Left,0,47,47,47,1,,
,,test1,1,2020-01-01_12h00.00.000,FingerOsc_Touch_v3_video,2023.2.2,MacIntel,43.47826087,,,,,,,,,,,,,,,,,,,,,X,buttonFO_Right,buttonFO_Left,,,,,106.538,106.738,-0.201438849,-0.18764988,1,0,0,0.2,buttonFO_Left,0,48,48,48,1,,
,,test1,1,2020-01-01_12h00.00.000,FingerOsc_Touch_v3_video,2023.2.2,MacIntel,43.47826087,,,,,,,,,,,,,,,,,,,,,X,buttonFO_Right,buttonFO_Left,,,,,106.739,106.955,-0.189448441,-0.191247002,1,0,0,0.216,buttonFO_Left,0,49,49,49,1,,
,,test1,1,2020-01-01_12h00.00.000,FingerOsc_Touch_v3_video,2023.2.2,MacIntel,43.47826087,,,,,,,,,,,,,,,,,,,,,X,buttonFO_Right,buttonFO_Left,,,,,106.955,107.163,-0.193045564,-0.194844125,1,0,0,0.208,buttonFO_Left,0,50,50,50,1,,
,,test1,1,2020-01-01_12h00.00.000,FingerOsc_Touch_v3_video,2023.2.2,MacIntel,43.47826087,,,,,,,,,,,,,,,,,,,,,X,buttonFO_Right,buttonFO_Left,,,,,107.163,107.38,-0.176258993,-0.199640288,1,0,0,0.217,buttonFO_Left,0,51,51,51,1,,
,,test1,1,2020-01-01_12h00.00.000,FingerOsc_Touch_v3_video,2023.2.2,MacIntel,43.47826087,,,,,,,,,,,,,,,,,,,,,X,buttonFO_Right,buttonFO_Left,,,,,107.38,107.613,-0.076738609,-0.200839329,1,0,0,0.233,buttonFO_Left,0,52,52,52,1,,
,,test1,1,2020-01-01_12h00.00.000,FingerOsc_Touch_v3_video,2023.2.2,MacIntel,43.47826087,,,,,,,,,,,,,,,,,,,,,X,buttonFO_Right,buttonFO_Left,,,,,107.613,107.813,-0.005995204,-0.193645084,1,0,0,0.199,buttonFO_Left,0,53,53,53,1,,
,,test1,1,2020-01-01_12h00.00.000,FingerOsc_Touch_v3_video,2023.2.2,MacIntel,43.47826087,,,,,,,,,,,,,,,,,,,,,X,buttonFO_Right,buttonFO_Left,,,,,107.813,108.013,-0.026378897,-0.192446043,1,0,0,0.2,buttonFO_Left,0,54,54,54,1,,
,,test1,1,2020-01-01_12h00.00.000,FingerOsc_Touch_v3_video,2023.2.2,MacIntel,43.47826087,,,,,,,,,,,,,,,,,,,,,X,buttonFO_Right,buttonFO_Left,,,,,108.014,108.213,-0.034772182,-0.199640288,1,0,0,0.199,buttonFO_Left,0,55,55,55,1,,
,,test1,1,2020-01-01_12h00.00.000,FingerOsc_Touch_v3_video,2023.2.2,MacIntel,43.47826087,,,,,,,,,,,,,,,,,,,,,X,buttonFO_Right,buttonFO_Left,,,,,108.213,108.463,-0.038369305,-0.199640288,1,0,0,0.25,buttonFO_Left,0,56,56,56,1,,
,,test1,1,2020-01-01_12h00.00.000,FingerOsc_Touch_v3_video,2023.2.2,MacIntel,43.47826087,,,,,,,,,,,,,,,,,,,,,X,buttonFO_Right,buttonFO_Left,,,,,108.464,108.663,-0.053956835,-0.197242206,1,0,0,0.199,buttonFO_Left,0,57,57,57,1,,
,,test1,1,2020-01-01_12h00.00.000,FingerOsc_Touch_v3_video,2023.2.2,MacIntel,43.47826087,,,,,,,,,,,,,,,,,,,,,X,buttonFO_Right,buttonFO_Left,,,,,108.664,108.864,-0.058752998,-0.197242206,1,0,0,0.199,buttonFO_Left,0,58,58,58,1,,
,,test1,1,2020-01-01_12h00.00.000,FingerOsc_Touch_v3_video,2023.2.2,MacIntel,43.47826087,,,,,,,,,,,,,,,,,,,,,X,buttonFO_Right,buttonFO_Left,,,,,108.864,109.072,-0.061151079,-0.194844125,1,0,0,0.208,buttonFO_Left,0,59,59,59,1,,
,,test1,1,2020-01-01_12h00.00.000,FingerOsc_Touch_v3_video,2023.2.2,MacIntel,43.47826087,,,,,,,,,,,,,,,,,,,,,X,buttonFO_Right,buttonFO_Left,,,,,109.073,109.312,-0.058752998,-0.202038369,1,0,0,0.239,buttonFO_Left,0,60,60,60,1,,
,,test1,1,2020-01-01_12h00.00.000,FingerOsc_Touch_v3_video,2023.2.2,MacIntel,43.47826087,,,,,,,,,,,,,,,,,,,,,X,buttonFO_Right,buttonFO_Left,,,,,109.312,109.522,-0.070743405,-0.193645084,1,0,0,0.21,buttonFO_Left,0,61,61,61,1,,
,,test1,1,2020-01-01_12h00.00.000,FingerOsc_Touch_v3_video,2023.2.2,MacIntel,43.47826087,,,,,,,,,,,,,,,,,,,,,X,buttonFO_Right,buttonFO_Left,,,,,109.522,109.797,-0.070743405,-0.206834532,1,0,0,0.274,buttonFO_Left,0,62,62,62,1,,
,,test1,1,2020-01-01_12h00.00.000,FingerOsc_Touch_v3_video,2023.2.2,MacIntel,43.47826087,,,,,,,,,,,,,,,,,,,,,X,buttonFO_Right,buttonFO_Left,,,,,109.797,109.989,-0.088729017,-0.197242206,1,0,0,0.192,buttonFO_Left,0,63,63,63,1,,
,,test1,1,2020-01-01_12h00.00.000,FingerOsc_Touch_v3_video,2023.2.2,MacIntel,43.47826087,,,,,,,,,,,,,,,,,,,,,X,buttonFO_Right,buttonFO_Left,,,,,109.989,110.222,-0.068345324,-0.20323741,1,0,0,0.233,buttonFO_Left,0,64,64,64,1,,
,,test1,1,2020-01-01_12h00.00.000,FingerOsc_Touch_v3_video,2023.2.2,MacIntel,43.47826087,,,,,,,,,,,,,,,,,,,,,X,buttonFO_Right,buttonFO_Left,,,,,110.223,110.447,-0.070743405,-0.209232614,1,0,0,0.224,buttonFO_Left,0,65,65,65,1,,
,,test1,1,2020-01-01_12h00.00.000,FingerOsc_Touch_v3_video,2023.2.2,MacIntel,43.47826087,,,,,,,,,,,,,,,,,,,,,X,buttonFO_Right,buttonFO_Left,,,,,110.448,110.664,-0.07793765,-0.216426859,1,0,0,0.216,buttonFO_Left,0,66,66,66,1,,
,,test1,1,2020-01-01_12h00.00.000,FingerOsc_Touch_v3_video,2023.2.2,MacIntel,43.47826087,,,,,,,,,,,,,,,,,,,,,X,buttonFO_Right,buttonFO_Left,,,,,110.664,110.872,-0.076738609,-0.214028777,1,0,0,0.208,buttonFO_Left,0,67,67,67,1,,
,,test1,1,2020-01-01_12h00.00.000,FingerOsc_Touch_v3_video,2023.2.2,MacIntel,43.47826087,,,,,,,,,,,,,,,,,,,,,X,buttonFO_Right,buttonFO_Left,,,,,110.873,111.08,-0.07793765,-0.214028777,1,0,0,0.207,buttonFO_Left,0,68,68,68,1,,
,,test1,1,2020-01-01_12h00.00.000,FingerOsc_Touch_v3_video,2023.2.2,MacIntel,43.47826087,,,,,,,,,,,,,,,,,,,,,X,buttonFO_Right,buttonFO_Left,,,,,111.081,111.29,-0.089928058,-0.214028777,1,0,0,0.208,buttonFO_Left,0,69,69,69,1,,
,,test1,1,2020-01-01_12h00.00.000,FingerOsc_Touch_v3_video,2023.2.2,MacIntel,43.47826087,,,,,,,,,,,,,,,,,,,,,X,buttonFO_Right,buttonFO_Left,,,,,111.29,111.514,-0.081534772,-0.221223022,1,0,0,0.224,buttonFO_Left,0,70,70,70,1,,
,,test1,1,2020-01-01_12h00.00.000,FingerOsc_Touch_v3_video,2023.2.2,MacIntel,43.47826087,,,,,,,,,,,,,,,,,,,,,X,buttonFO_Right,buttonFO_Left,,,,,111.515,111.756,-0.088729017,-0.215227818,1,0,0,0.241,buttonFO_Left,0,71,71,71,1,,
,,test1,1,2020-01-01_12h00.00.000,FingerOsc_Touch_v3_video,2023.2.2,MacIntel,43.47826087,,,,,,,,,,,,,,,,,,,,,X,buttonFO_Right,buttonFO_Left,,,,,111.756,111.974,-0.087529976,-0.214028777,1,0,0,0.217,buttonFO_Left,0,72,72,72,1,,
,,test1,1,2020-01-01_12h00.00.000,FingerOsc_Touch_v3_video,2023.2.2,MacIntel,43.47826087,,,,,,,,,,,,,,,,,,,,,X,buttonFO_Right,buttonFO_Left,,,,,111.974,112.172,-0.095923261,-0.205635492,1,0,0,0.198,buttonFO_Left,0,73,73,73,1,,
,,test1,1,2020-01-01_12h00.00.000,FingerOsc_Touch_v3_video,2023.2.2,MacIntel,43.47826087,,,,,,,,,,,,,,,,,,,,,X,buttonFO_Right,buttonFO_Left,,,,,112.173,112.404,-0.10911271,-0.200839329,1,0,0,0.231,buttonFO_Left,0,74,74,74,1,,
,,test1,1,2020-01-01_12h00.00.000,FingerOsc_Touch_v3_video,2023.2.2,MacIntel,43.47826087,,,,,,,,,,,,,,,,,,,,,X,buttonFO_Right,buttonFO_Left,,,,,112.404,112.64,-0.051558753,-0.217625899,1,0,0,0.236,buttonFO_Left,0,75,75,75,1,,
,,test1,1,2020-01-01_12h00.00.000,FingerOsc_Touch_v3_video,2023.2.2,MacIntel,43.47826087,,,,,,,,,,,,,,,,,,,,,X,buttonFO_Right,buttonFO_Left,,,,,112.64,112.874,-0.065947242,-0.212829736,1,0,0,0.234,buttonFO_Left,0,76,76,76,1,,
,,test1,1,2020-01-01_12h00.00.000,FingerOsc_Touch_v3_video,2023.2.2,MacIntel,43.47826087,,,,,,,,,,,,,,,,,,,,,X,buttonFO_Right,buttonFO_Left,,,,,112.874,113.106,-0.088729017,-0.204436451,1,0,0,0.232,buttonFO_Left,0,77,77,77,1,,
,,test1,1,2020-01-01_12h00.00.000,FingerOsc_Touch_v3_video,2023.2.2,MacIntel,43.47826087,,,,,,,,,,,,,,,,,,,,,X,buttonFO_Right,buttonFO_Left,,,,,113.107,113.314,-0.09352518,-0.206834532,1,0,0,0.207,buttonFO_Left,0,78,78,78,1,,
,,test1,1,2020-01-01_12h00.00.000,FingerOsc_Touch_v3_video,2023.2.2,MacIntel,43.47826087,,,,,,,,,,,,,,,,,,,,,X,buttonFO_Right,buttonFO_Left,,,,,113.315,113.539,-0.095923261,-0.205635492,1,0,0,0.224,buttonFO_Left,0,79,79,79,1,,
,,test1,1,2020-01-01_12h00.00.000,FingerOsc_Touch_v3_video,2023.2.2,MacIntel,43.47826087,,,,,,,,,,,,,,,,,,,,,X,buttonFO_Right,buttonFO_Left,,,,,113.54,113.807,-0.094724221,-0.211630695,1,0,0,0.267,buttonFO_Left,0,80,80,80,1,,
,,test1,1,2020-01-01_12h00.00.000,FingerOsc_Touch_v3_video,2023.2.2,MacIntel,43.47826087,,,,,,,,,,,,,,,,,,,,,X,buttonFO_Right,buttonFO_Left,,,,,113.808,114.032,-0.086330935,-0.214028777,1,0,0,0.224,buttonFO_Left,0,81,81,81,1,,
,,test1,1,2020-01-01_12h00.00.000,FingerOsc_Touch_v3_video,2023.2.2,MacIntel,43.47826087,,,,,,,,,,,,,,,,,,,,,X,buttonFO_Right,buttonFO_Left,,,,,114.033,114.231,-0.089928058,-0.206834532,1,0,0,0.198,buttonFO_Left,0,82,82,82,1,,
,,test1,1,2020-01-01_12h00.00.000,FingerOsc_Touch_v3_video,2023.2.2,MacIntel,43.47826087,,,,,,,,,,,,,,,,,,,,,X,buttonFO_Right,buttonFO_Left,,,,,114.231,114.465,-0.085131894,-0.208033573,1,0,0,0.234,buttonFO_Left,0,83,83,83,1,,
,,test1,1,2020-01-01_12h00.00.000,FingerOsc_Touch_v3_video,2023.2.2,MacIntel,43.47826087,,,,,,,,,,,,,,,,,,,,,X,buttonFO_Right,buttonFO_Left,,,,,114.465,114.707,-0.080335731,-0.200839329,1,0,0,0.242,buttonFO_Left,0,84,84,84,1,,
,,test1,1,2020-01-01_12h00.00.000,FingerOsc_Touch_v3_video,2023.2.2,MacIntel,43.47826087,,,,,,,,,,,,,,,,,,,,,X,buttonFO_Right,buttonFO_Left,,,,,114.708,115.182,-0.075539568,-0.206834532,1,0,0,0.474,buttonFO_Left,0,85,85,85,1,,
,,test1,1,2020-01-01_12h00.00.000,FingerOsc_Touch_v3_video,2023.2.2,MacIntel,43.47826087,,,,,,,,,,,,,,,,,,,,,X,buttonFO_Right,buttonFO_Left,,,,,115.183,115.406,-0.079136691,-0.210431655,1,0,0,0.223,buttonFO_Left,0,86,86,86,1,,
,,test1,1,2020-01-01_12h00.00.000,FingerOsc_Touch_v3_video,2023.2.2,MacIntel,43.47826087,,,,,,,,,,,,,,,,,,,,,X,buttonFO_Right,buttonFO_Left,,,,,115.407,115.649,-0.085131894,-0.20323741,1,0,0,0.242,buttonFO_Left,0,87,87,87,1,,
,,test1,1,2020-01-01_12h00.00.000,FingerOsc_Touch_v3_video,2023.2.2,MacIntel,43.47826087,,,,,,,,,,,,,,,,,,,,,X,buttonFO_Right,buttonFO_Left,,,,,115.649,115.858,-0.095923261,-0.197242206,1,0,0,0.209,buttonFO_Left,0,88,88,88,1,,
,,test1,1,2020-01-01_12h00.00.000,FingerOsc_Touch_v3_video,2023.2.2,MacIntel,43.47826087,,,,,,,,,,,,,,,,,,,,,X,buttonFO_Right,buttonFO_Left,,,,,115.859,116.1,-0.095923261,-0.197242206,1,0,0,0.241,buttonFO_Left,0,89,89,89,1,,
,,test1,1,2020-01-01_12h00.00.000,FingerOsc_Touch_v3_video,2023.2.2,MacIntel,43.47826087,,,,,,,,,,,,,,,,,,,,,X,buttonFO_Right,buttonFO_Left,,,,,116.1,116.359,-0.103117506,-0.193645084,1,0,0,0.258,buttonFO_Left,0,90,90,90,1,,
,,test1,1,2020-01-01_12h00.00.000,FingerOsc_Touch_v3_video,2023.2.2,MacIntel,43.47826087,,,,,,,,,,,,,,,,,,,,,X,buttonFO_Right,buttonFO_Left,,,,,116.359,116.6,-0.100719424,-0.192446043,1,0,0,0.24,buttonFO_Left,0,91,91,91,1,,
,,test1,1,2020-01-01_12h00.00.000,FingerOsc_Touch_v3_video,2023.2.2,MacIntel,43.47826087,,,,,,,,,,,,,,,,,,,,,X,buttonFO_Right,buttonFO_Left,,,,,116.6,116.831,-0.101918465,-0.191247002,1,0,0,0.231,buttonFO_Left,0,92,92,92,1,,
,,test1,1,2020-01-01_12h00.00.000,FingerOsc_Touch_v3_video,2023.2.2,MacIntel,43.47826087,,,,,,,,,,,,,,,,,,,,,X,buttonFO_Right,buttonFO_Left,,,,,116.832,117.075,-0.101918465,-0.188848921,1,0,0,0.243,buttonFO_Left,0,93,93,93,1,,
,,test1,1,2020-01-01_12h00.00.000,FingerOsc_Touch_v3_video,2023.2.2,MacIntel,43.47826087,,,,,,,,,,,,,,,,,,,,,X,buttonFO_Right,buttonFO_Left,,,,,117.076,117.333,-0.092326139,-0.193645084,1,0,0,0.257,buttonFO_Left,0,94,94,94,1,,
,,test1,1,2020-01-01_12h00.00.000,FingerOsc_Touch_v3_video,2023.2.2,MacIntel,43.47826087,,,,,,,,,,,,,,,,,,,,,X,buttonFO_Right,buttonFO_Left,,,,,117.334,117.584,-0.087529976,-0.193645084,1,0,0,0.25,buttonFO_Left,0,95,95,95,1,,
,,test1,1,2020-01-01_12h00.00.000,FingerOsc_Touch_v3_video,2023.2.2,MacIntel,43.47826087,,,,,,,,,,,,,,,,,,,,,X,buttonFO_Right,buttonFO_Left,,,,,117.584,117.809,-0.087529976,-0.194844125,1,0,0,0.225,buttonFO_Left,0,96,96,96,1,,
,,test1,1,2020-01-01_12h00.00.000,FingerOsc_Touch_v3_video,2023.2.2,MacIntel,43.47826087,,,,,,,,,,,,,,,,,,,,,X,buttonFO_Right,buttonFO_Left,,,,,117.81,118.033,-0.075539568,-0.200839329,1,0,0,0.223,buttonFO_Left,0,97,97,97,1,,
,,test1,1,2020-01-01_12h00.00.000,FingerOsc_Touch_v3_video,2023.2.2,MacIntel,43.47826087,,,,,,,,,,,,,,,,,,,,,X,buttonFO_Right,buttonFO_Left,,,,,118.034,118.25,-0.080335731,-0.199640288,1,0,0,0.216,buttonFO_Left,0,98,98,98,1,,
,,test1,1,2020-01-01_12h00.00.000,FingerOsc_Touch_v3_video,2023.2.2,MacIntel,43.47826087,,,,,,,,,,,,,,,,,,,,,X,buttonFO_Right,buttonFO_Left,,,,,118.251,118.509,-0.056354916,-0.208033573,1,0,0,0.258,buttonFO_Left,0,99,99,99,1,,
,,test1,1,2020-01-01_12h00.00.000,FingerOsc_Touch_v3_video,2023.2.2,MacIntel,43.47826087,,,,,,,,,,,,,,,,,,,,,X,buttonFO_Right,buttonFO_Left,,,,,118.51,118.717,-0.050359712,-0.206834532,1,0,0,0.207,buttonFO_Left,0,100,100,100,1,,
,,test1,1,2020-01-01_12h00.00.000,FingerOsc_Touch_v3_video,2023.2.2,MacIntel,43.47826087,,,,,,,,,,,,,,,,,,,,,X,buttonFO_Right,buttonFO_Left,,,,,118.717,118.942,-0.050359712,-0.210431655,1,0,0,0.225,buttonFO_Left,0,101,101,101,1,,
,,test1,1,2020-01-01_12h00.00.000,FingerOsc_Touch_v3_video,2023.2.2,MacIntel,43.47826087,,,,,,,,,,,,,,,,,,,,,X,buttonFO_Right,buttonFO_Left,,,,,118.943,119.167,-0.053956835,-0.205635492,1,0,0,0.224,buttonFO_Left,0,102,102,102,1,,
,,test1,1,2020-01-01_12h00.00.000,FingerOsc_Touch_v3_video,2023.2.2,MacIntel,43.47826087,,,,,,,,,,,,,,,,,,,,,X,buttonFO_Right,buttonFO_Left,,,,,119.168,119.384,-0.09352518,-0.18764988,1,0,0,0.216,buttonFO_Left,0,103,103,103,1,,
,,test1,1,2020-01-01_12h00.00.000,FingerOsc_Touch_v3_video,2023.2.2,MacIntel,43.47826087,,,,,,,,,,,,,,,,,,,,,X,buttonFO_Right,buttonFO_Left,,,,,119.385,119.644,-0.082733813,-0.191247002,1,0,0,0.258,buttonFO_Left,0,104,104,104,1,,
,,test1,1,2020-01-01_12h00.00.000,FingerOsc_Touch_v3_video,2023.2.2,MacIntel,43.47826087,,,,,,,,,,,,,,,,,,,,,X,buttonFO_Right,buttonFO_Left,,,,,119.644,119.877,-0.029976019,-0.210431655,1,0,0,0.232,buttonFO_Left,0,105,105,105,1,,
,,test1,1,2020-01-01_12h00.00.000,FingerOsc_Touch_v3_video,2023.2.2,MacIntel,43.47826087,,,,,,,,,,,,,,,,,,,,,X,buttonFO_Right,buttonFO_Left,,,,,119.877,120.094,-0.061151079,-0.194844125,1,0,0,0.217,buttonFO_Left,0,106,106,106,1,,
,,test1,1,2020-01-01_12h00.00.000,FingerOsc_Touch_v3_video,2023.2.2,MacIntel,43.47826087,,,,,,,,,,,,,,,,,,,,,X,buttonFO_Right,buttonFO_Left,,,,,120.094,120.344,-0.068345324,-0.198441247,1,0,0,0.25,buttonFO_Left,0,107,107,107,1,,
,,test1,1,2020-01-01_12h00.00.000,FingerOsc_Touch_v3_video,2023.2.2,MacIntel,43.47826087,,,,,,,,,,,,,,,,,,,,,X,buttonFO_Right,buttonFO_Left,,,,,120.344,120.569,-0.064748201,-0.205635492,1,0,0,0.224,buttonFO_Left,0,108,108,108,1,,
,,test1,1,2020-01-01_12h00.00.000,FingerOsc_Touch_v3_video,2023.2.2,MacIntel,43.47826087,,,,,,,,,,,,,,,,,,,,,X,buttonFO_Right,buttonFO_Left,,,,,120.569,120.818,-0.071942446,-0.200839329,1,0,0,0.249,buttonFO_Left,0,109,109,109,1,,
,,test1,1,2020-01-01_12h00.00.000,FingerOsc_Touch_v3_video,2023.2.2,MacIntel,43.47826087,,,,,,,,,,,,,,,,,,,,,X,buttonFO_Right,buttonFO_Left,,,,,120.818,121.044,-0.071942446,-0.200839329,1,0,0,0.226,buttonFO_Left,0,110,110,110,1,,
,,test1,1,2020-01-01_12h00.00.000,FingerOsc_Touch_v3_video,2023.2.2,MacIntel,43.47826087,,,,,,,,,,,,,,,,,,,,,X,buttonFO_Right,buttonFO_Left,,,,,121.044,121.311,-0.076738609,-0.191247002,1,0,0,0.266,buttonFO_Left,0,111,111,111,1,,
,,test1,1,2020-01-01_12h00.00.000,FingerOsc_Touch_v3_video,2023.2.2,MacIntel,43.47826087,,,,,,,,,,,,,,,,,,,,,X,buttonFO_Right,buttonFO_Left,,,,,121.311,121.544,-0.070743405,-0.194844125,1,0,0,0.233,buttonFO_Left,0,112,112,112,1,,
,,test1,1,2020-01-01_12h00.00.000,FingerOsc_Touch_v3_video,2023.2.2,MacIntel,43.47826087,,,,,,,,,,,,,,,,,,,,,X,buttonFO_Right,buttonFO_Left,,,,,121.544,121.809,-0.038369305,-0.208033573,1,0,0,0.265,buttonFO_Left,0,113,113,113,1,,
,,test1,1,2020-01-01_12h00.00.000,FingerOsc_Touch_v3_video,2023.2.2,MacIntel,43.47826087,,,,,,,,,,,,,,,,,,,,,X,buttonFO_Right,buttonFO_Left,,,,,121.81,122.05,-0.067146283,-0.199640288,1,0,0,0.24,buttonFO_Left,0,114,114,114,1,,
,,test1,1,2020-01-01_12h00.00.000,FingerOsc_Touch_v3_video,2023.2.2,MacIntel,43.47826087,,,,,,,,,,,,,,,,,,,,,X,buttonFO_Right,buttonFO_Left,,,,,122.051,122.278,-0.06235012,-0.206834532,1,0,0,0.226,buttonFO_Left,0,115,115,115,1,,
,,test1,1,2020-01-01_12h00.00.000,FingerOsc_Touch_v3_video,2023.2.2,MacIntel,43.47826087,,,,,,,,,,,,,,,,,,,,,X,buttonFO_Right,buttonFO_Left,,,,,122.278,122.485,-0.070743405,-0.202038369,1,0,0,0.207,buttonFO_Left,0,116,116,116,1,,
,,test1,1,2020-01-01_12h00.00.000,FingerOsc_Touch_v3_video,2023.2.2,MacIntel,43.47826087,,,,,,,,,,,,,,,,,,,,,X,buttonFO_Right,buttonFO_Left,,,,,122.485,122.728,-0.074340528,-0.20323741,1,0,0,0.243,buttonFO_Left,0,117,117,117,1,,
,,test1,1,2020-01-01_12h00.00.000,FingerOsc_Touch_v3_video,2023.2.2,MacIntel,43.47826087,,,,,,,,,,,,,,,,,,,,,X,buttonFO_Right,buttonFO_Left,,,,,122.728,122.936,-0.069544365,-0.20323741,1,0,0,0.208,buttonFO_Left,0,118,118,118,1,,
,,test1,1,2020-01-01_12h00.00.000,FingerOsc_Touch_v3_video,2023.2.2,MacIntel,43.47826087,,,,,,,,,,,,,,,,,,,,,X,buttonFO_Right,buttonFO_Left,,,,,122.937,123.161,-0.075539568,-0.20323741,1,0,0,0.223,buttonFO_Left,0,119,119,119,1,,
,,test1,1,2020-01-01_12h00.00.000,FingerOsc_Touch_v3_video,2023.2.2,MacIntel,43.47826087,,,,,,,,,,,,,,,,,,,,,X,buttonFO_Right,buttonFO_Left,,,,,123.161,123.385,-0.064748201,-0.20323741,1,0,0,0.224,buttonFO_Left,0,120,120,120,1,,
,,test1,1,2020-01-01_12h00.00.000,FingerOsc_Touch_v3_video,2023.2.2,MacIntel,43.47826087,,,,,,,,,,,,,,,,,,,,,X,buttonFO_Right,buttonFO_Left,,,,,123.386,123.636,-0.074340528,-0.197242206,1,0,0,0.25,buttonFO_Left,0,121,121,121,1,,
,,test1,1,2020-01-01_12h00.00.000,FingerOsc_Touch_v3_video,2023.2.2,MacIntel,43.47826087,,,,,,,,,,,,,,,,,,,,,X,buttonFO_Right,buttonFO_Left,,,,,123.637,123.886,-0.055155875,-0.206834532,1,0,0,0.249,buttonFO_Left,0,122,122,122,1,,
,,test1,1,2020-01-01_12h00.00.000,FingerOsc_Touch_v3_video,2023.2.2,MacIntel,43.47826087,,,,,,,,,,,,,,,,,,,,,X,buttonFO_Right,buttonFO_Left,,,,,123.887,124.134,-0.069544365,-0.198441247,1,0,0,0.247,buttonFO_Left,0,123,123,123,1,,
,,test1,1,2020-01-01_12h00.00.000,FingerOsc_Touch_v3_video,2023.2.2,MacIntel,43.47826087,,,,,,,,,,,,,,,,,,,,,X,buttonFO_Right,buttonFO_Left,,,,,124.134,124.328,-0.059952038,-0.206834532,1,0,0,0.194,buttonFO_Left,0,124,124,124,1,,
,,test1,1,2020-01-01_12h00.00.000,FingerOsc_Touch_v3_video,2023.2.2,MacIntel,43.47826087,,,,,,,,,,,,,,,,,,,,,X,buttonFO_Right,buttonFO_Left,,,,,124.329,124.553,-0.058752998,-0.206834532,1,0,0,0.224,buttonFO_Left,0,125,125,125,1,,
,,test1,1,2020-01-01_12h00.00.000,FingerOsc_Touch_v3_video,2023.2.2,MacIntel,43.47826087,,,,,,,,,,,,,,,,,,,,,X,buttonFO_Right,buttonFO_Left,,,,,124.553,124.779,-0.052757794,-0.211630695,1,0,0,0.226,buttonFO_Left,0,126,126,126,1,,
,,test1,1,2020-01-01_12h00.00.000,FingerOsc_Touch_v3_video,2023.2.2,MacIntel,43.47826087,,,,,,,,,,,,,,,,,,,,,X,buttonFO_Right,buttonFO_Left,,,,,124.779,125.012,-0.052757794,-0.205635492,1,0,0,0.233,buttonFO_Left,0,127,127,127,1,,
,,test1,1,2020-01-01_12h00.00.000,FingerOsc_Touch_v3_video,2023.2.2,MacIntel,43.47826087,,,,,,,,,,,,,,,,,,,,,X,buttonFO_Right,buttonFO_Left,,,,,125.012,125.236,-0.058752998,-0.205635492,1,0,0,0.224,buttonFO_Left,0,128,128,128,1,,
,,test1,1,2020-01-01_12h00.00.000,FingerOsc_Touch_v3_video,2023.2.2,MacIntel,43.47826087,,,,,,,,,,,,,,,,,,,,,X,buttonFO_Right,buttonFO_Left,,,,,125.237,125.461,-0.056354916,-0.211630695,1,0,0,0.224,buttonFO_Left,0,129,129,129,1,,
,,test1,1,2020-01-01_12h00.00.000,FingerOsc_Touch_v3_video,2023.2.2,MacIntel,43.47826087,,,,,,,,,,,,,,,,,,,,,X,buttonFO_Right,buttonFO_Left,,,,,125.462,125.686,-0.058752998,-0.206834532,1,0,0,0.224,buttonFO_Left,0,130,130,130,1,,
,,test1,1,2020-01-01_12h00.00.000,FingerOsc_Touch_v3_video,2023.2.2,MacIntel,43.47826087,,,,,,,,,,,,,,,,,,,,,X,buttonFO_Right,buttonFO_Left,,,,,125.687,125.921,-0.068345324,-0.198441247,1,0,0,0.234,buttonFO_Left,0,131,131,131,1,,
,,test1,1,2020-01-01_12h00.00.000,FingerOsc_Touch_v3_video,2023.2.2,MacIntel,43.47826087,,,,,,,,,,,,,,,,,,,,,X,buttonFO_Right,buttonFO_Left,,,,,125.921,126.137,-0.056354916,-0.200839329,1,0,0,0.216,buttonFO_Left,0,132,132,132,1,,
,,test1,1,2020-01-01_12h00.00.000,FingerOsc_Touch_v3_video,2023.2.2,MacIntel,43.47826087,,,,,,,,,,,,,,,,,,,,,X,buttonFO_Right,buttonFO_Left,,,,,126.138,126.386,-0.061151079,-0.208033573,1,0,0,0.248,buttonFO_Left,0,133,133,133,1,,
,,test1,1,2020-01-01_12h00.00.000,FingerOsc_Touch_v3_video,2023.2.2,MacIntel,43.47826087,,,,,,,,,,,,,,,,,,,,,X,buttonFO_Right,buttonFO_Left,,,,,126.387,126.636,-0.058752998,-0.200839329,1,0,0,0.249,buttonFO_Left,0,134,134,134,1,,
,,test1,1,2020-01-01_12h00.00.000,FingerOsc_Touch_v3_video,2023.2.2,MacIntel,43.47826087,,,,,,,,,,,,,,,,,,,,,X,buttonFO_Right,buttonFO_Left,,,,,126.637,126.905,-0.067146283,-0.196043165,1,0,0,0.268,buttonFO_Left,0,135,135,135,1,,
,,test1,1,2020-01-01_12h00.00.000,FingerOsc_Touch_v3_video,2023.2.2,MacIntel,43.47826087,,,,,,,,,,,,,,,,,,,,,X,buttonFO_Right,buttonFO_Left,,,,,126.905,127.13,-0.065947242,-0.193645084,1,0,0,0.225,buttonFO_Left,0,136,136,136,1,,
,,test1,1,2020-01-01_12h00.00.000,FingerOsc_Touch_v3_video,2023.2.2,MacIntel,43.47826087,,,,,,,,,,,,,,,,,,,,,X,buttonFO_Right,buttonFO_Left,,,,,127.131,127.371,-0.068345324,-0.191247002,1,0,0,0.24,buttonFO_Left,0,137,137,137,1,,
,,test1,1,2020-01-01_12h00.00.000,FingerOsc_Touch_v3_video,2023.2.2,MacIntel,43.47826087,,,,,,,,,,,,,,,,,,,,,X,buttonFO_Right,buttonFO_Left,,,,,127.371,127.63,-0.068345324,-0.191247002,1,0,0,0.259,buttonFO_Left,0,138,138,138,1,,
,,test1,1,2020-01-01_12h00.00.000,FingerOsc_Touch_v3_video,2023.2.2,MacIntel,43.47826087,,,,,,,,,,,,,,,,,,,,,X,buttonFO_Right,buttonFO_Left,,,,,127.63,127.863,-0.065947242,-0.188848921,1,0,0,0.233,buttonFO_Left,0,139,139,139,1,,
,,test1,1,2020-01-01_12h00.00.000,FingerOsc_Touch_v3_video,2023.2.2,MacIntel,43.47826087,,,,,,,,,,,,,,,,,,,,,X,buttonFO_Right,buttonFO_Left,,,,,127.864,128.088,-0.064748201,-0.192446043,1,0,0,0.224,buttonFO_Left,0,140,140,140,1,,
,,test1,1,2020-01-01_12h00.00.000,FingerOsc_Touch_v3_video,2023.2.2,MacIntel,43.47826087,,,,,,,,,,,,,,,,,,,,,X,buttonFO_Right,buttonFO_Left,,,,,128.088,128.314,-0.06235012,-0.194844125,1,0,0,0.226,buttonFO_Left,0,141,141,141,1,,
,,test1,1,2020-01-01_12h00.00.000,FingerOsc_Touch_v3_video,2023.2.2,MacIntel,43.47826087,,,,,,,,,,,,,,,,,,,,,X,buttonFO_Right,buttonFO_Left,,,,,128.314,128.547,-0.061151079,-0.194844125,1,0,0,0.233,buttonFO_Left,0,142,142,142,1,,
,,test1,1,2020-01-01_12h00.00.000,FingerOsc_Touch_v3_video,2023.2.2,MacIntel,43.47826087,,,,,,,,,,,,,,,,,,,,,,,,128.548,133.546,,,,,,,,,,,,,,,,,133.55,136.548