id,filename,session,datetime,exp_name,software_version,framerate,os,response,rt,trial,hand,block
test4,test4_fo.csv,2,2020-01-01_12h00.00.000,fingerosc_soar_2025.2.3,2025.2.4,60.97560976,Win32,space,0.4626,0.0,dominant,dominant
test4,test4_fo.csv,2,2020-01-01_12h00.00.000,fingerosc_soar_2025.2.3,2025.2.4,60.97560976,Win32,space,0.1891,1.0,dominant,dominant
test4,test4_fo.csv,2,2020-01-01_12h00.00.000,fingerosc_soar_2025.2.3,2025.2.4,60.97560976,Win32,space,0.1732,2.0,dominant,dominant
test4,test4_fo.csv,2,2020-01-01_12h00.00.000,fingerosc_soar_2025.2.3,2025.2.4,60.97560976,Win32,space,0.3007,3.0,dominant,dominant
test4,test4_fo.csv,2,2020-01-01_12h00.00.000,fingerosc_soar_2025.2.3,2025.2.4,60.97560976,Win32,space,0.1675,4.0,dominant,dominant
test4,test4_fo.csv,2,2020-01-01_12h00.00.000,fingerosc_soar_2025.2.3,2025.2.4,60.97560976,Win32,space,0.1544,5.0,dominant,dominant
test4,test4_fo.csv,2,2020-01-01_12h00.00.000,fingerosc_soar_2025.2.3,2025.2.4,60.97560976,Win32,space,0.1532,6.0,dominant,dominant
test4,test4_fo.csv,2,2020-01-01_12h00.00.000,fingerosc_soar_2025.2.3,2025.2.4,60.97560976,Win32,space,0.1579,7.0,dominant,dominant
test4,test4_fo.csv,2,2020-01-01_12h00.00.000,fingerosc_soar_2025.2.3,2025.2.4,60.97560976,Win32,space,0.1891,8.0,dominant,dominant
test4,test4_fo.csv,2,2020-01-01_12h00.00.000,fingerosc_soar_2025.2.3,2025.2.4,60.97560976,Win32,space,0.19,9.0,dominant,dominant
test4,test4_fo.csv,2,2020-01-01_12h00.00.000,fingerosc_soar_2025.2.3,2025.2.4,60.97560976,Win32,space,0.2003,10.0,dominant,dominant
test4,test4_fo.csv,2,2020-01-01_12h00.00.000,fingerosc_soar_2025.2.3,2025.2.4,60.97560976,Win32,space,0.1684,11.0,dominant,dominant
test4,test4_fo.csv,2,2020-01-01_12h00.00.000,fingerosc_soar_2025.2.3,2025.2.4,60.97560976,Win32,space,0.1521,12.0,dominant,dominant
test4,test4_fo.csv,2,2020-01-01_12h00.00.000,fingerosc_soar_2025.2.3,2025.2.4,60.97560976,Win32,space,0.1838,13.0,dominant,dominant
test4,test4_fo.csv,2,2020-01-01_12h00.00.000,fingerosc_soar_2025.2.3,2025.2.4,60.97560976,Win32,space,0.1761,14.0,dominant,dominant
test4,test4_fo.csv,2,2020-01-01_12h00.00.000,fingerosc_soar_2025.2.3,2025.2.4,60.97560976,Win32,space,0.1825,15.0,dominant,dominant
test4,test4_fo.csv,2,2020-01-01_12h00.00.000,fingerosc_soar_2025.2.3,2025.2.4,60.97560976,Win32,space,0.1505,16.0,dominant,dominant
test4,test4_fo.csv,2,2020-01-01_12h00.00.000,fingerosc_soar_2025.2.3,2025.2.4,60.97560976,Win32,space,0.1741,17.0,dominant,dominant
test4,test4_fo.csv,2,2020-01-01_12h00.00.000,fingerosc_soar_2025.2.3,2025.2.4,60.97560976,Win32,space,0.178,18.0,dominant,dominant
test4,test4_fo.csv,2,2020-01-01_12h00.00.000,fingerosc_soar_2025.2.3,2025.2.4,60.97560976,Win32,space,0.167,19.0,dominant,dominant
test4,test4_fo.csv,2,2020-01-01_12h00.00.000,fingerosc_soar_2025.2.3,2025.2.4,60.97560976,Win32,space,0.1769,20.0,dominant,dominant
test4,test4_fo.csv,2,2020-01-01_12h00.00.000,fingerosc_soar_2025.2.3,2025.2.4,60.97560976,Win32,space,0.1934,21.0,dominant,dominant
test4,test4_fo.csv,2,2020-01-01_12h00.00.000,fingerosc_soar_2025.2.3,2025.2.4,60.97560976,Win32,space,0.1669,22.0,dominant,dominant
test4,test4_fo.csv,2,2020-01-01_12h00.00.000,fingerosc_soar_2025.2.3,2025.2.4,60.97560976,Win32,space,0.1676,23.0,dominant,dominant
test4,test4_fo.csv,2,2020-01-01_12h00.00.000,fingerosc_soar_2025.2.3,2025.2.4,60.97560976,Win32,space,0.1678,24.0,dominant,dominant
test4,test4_fo.csv,2,2020-01-01_12h00.00.000,fingerosc_soar_2025.2.3,2025.2.4,60.97560976,Win32,space,0.1682,25.0,dominant,dominant
test4,test4_fo.csv,2,2020-01-01_12h00.00.000,fingerosc_soar_2025.2.3,2025.2.4,60.97560976,Win32,space,0.1844,26.0,dominant,dominant
test4,test4_fo.csv,2,2020-01-01_12h00.00.000,fingerosc_soar_2025.2.3,2025.2.4,60.97560976,Win32,space,0.1713,27.0,dominant,dominant
test4,test4_fo.csv,2,2020-01-01_12h00.00.000,fingerosc_soar_2025.2.3,2025.2.4,60.97560976,Win32,space,0.1377,28.0,dominant,dominant
test4,test4_fo.csv,2,2020-01-01_12h00.00.000,fingerosc_soar_2025.2.3,2025.2.4,60.97560976,Win32,space,0.1353,29.0,dominant,dominant
test4,test4_fo.csv,2,2020-01-01_12h00.00.000,fingerosc_soar_2025.2.3,2025.2.4,60.97560976,Win32,space,0.1331,30.0,dominant,dominant
test4,test4_fo.csv,2,2020-01-01_12h00.00.000,fingerosc_soar_2025.2.3,2025.2.4,60.97560976,Win32,space,0.1422,31.0,dominant,dominant
test4,test4_fo.csv,2,2020-01-01_12h00.00.000,fingerosc_soar_2025.2.3,2025.2.4,60.97560976,Win32,space,0.1494,32.0,dominant,dominant
test4,test4_fo.csv,2,2020-01-01_12h00.00.000,fingerosc_soar_2025.2.3,2025.2.4,60.97560976,Win32,space,0.1358,33.0,dominant,dominant
test4,test4_fo.csv,2,2020-01-01_12h00.00.000,fingerosc_soar_2025.2.3,2025.2.4,60.97560976,Win32,space,0.1535,34.0,dominant,dominant
test4,test4_fo.csv,2,2020-01-01_12h00.00.000,fingerosc_soar_2025.2.3,2025.2.4,60.97560976,Win32,space,0.1336,35.0,dominant,dominant
test4,test4_fo.csv,2,2020-01-01_12h00.00.000,fingerosc_soar_2025.2.3,2025.2.4,60.97560976,Win32,space,0.1246,36.0,dominant,dominant
test4,test4_fo.csv,2,2020-01-01_12h00.00.000,fingerosc_soar_2025.2.3,2025.2.4,60.97560976,Win32,space,0.1493,37.0,dominant,dominant
test4,test4_fo.csv,2,2020-01-01_12h00.00.000,fingerosc_soar_2025.2.3,2025.2.4,60.97560976,Win32,space,0.1322,38.0,dominant,dominant
test4,test4_fo.csv,2,2020-01-01_12h00.00.000,fingerosc_soar_2025.2.3,2025.2.4,60.97560976,Win32,space,0.1454,39.0,dominant,dominant
test4,test4_fo.csv,2,2020-01-01_12h00.00.000,fingerosc_soar_2025.2.3,2025.2.4,60.97560976,Win32,space,0.1494,40.0,dominant,dominant
test4,test4_fo.csv,2,2020-01-01_12h00.00.000,fingerosc_soar_2025.2.3,2025.2.4,60.97560976,Win32,space,0.143,41.0,dominant,dominant
test4,test4_fo.csv,2,2020-01-01_12h00.00.000,fingerosc_soar_2025.2.3,2025.2.4,60.97560976,Win32,space,0.1571,42.0,dominant,dominant
test4,test4_fo.csv,2,2020-01-01_12h00.00.000,fingerosc_soar_2025.2.3,2025.2.4,60.97560976,Win32,space,0.1421,43.0,dominant,dominant
test4,test4_fo.csv,2,2020-01-01_12h00.00.000,fingerosc_soar_2025.2.3,2025.2.4,60.97560976,Win32,space,0.1432,44.0,dominant,dominant
test4,test4_fo.csv,2,2020-01-01_12h00.00.000,fingerosc_soar_2025.2.3,2025.2.4,60.97560976,Win32,space,0.1544,45.0,dominant,dominant
test4,test4_fo.csv,2,2020-01-01_12h00.00.000,fingerosc_soar_2025.2.3,2025.2.4,60.97560976,Win32,space,0.1515,46.0,dominant,dominant
test4,test4_fo.csv,2,2020-01-01_12h00.00.000,fingerosc_soar_2025.2.3,2025.2.4,60.97560976,Win32,space,0.1509,47.0,dominant,dominant
test4,test4_fo.csv,2,2020-01-01_12h00.00.000,fingerosc_soar_2025.2.3,2025.2.4,60.97560976,Win32,space,0.1564,48.0,dominant,dominant
test4,test4_fo.csv,2,2020-01-01_12h00.00.000,fingerosc_soar_2025.2.3,2025.2.4,60.97560976,Win32,space,0.1757,49.0,dominant,dominant
test4,test4_fo.csv,2,2020-01-01_12h00.00.000,fingerosc_soar_2025.2.3,2025.2.4,60.97560976,Win32,space,0.208,50.0,dominant,dominant
test4,test4_fo.csv,2,2020-01-01_12h00.00.000,fingerosc_soar_2025.2.3,2025.2.4,60.97560976,Win32,space,0.2276,51.0,dominant,dominant
test4,test4_fo.csv,2,2020-01-01_12h00.00.000,fingerosc_soar_2025.2.3,2025.2.4,60.97560976,Win32,space,0.2174,52.0,dominant,dominant
test4,test4_fo.csv,2,2020-01-01_12h00.00.000,fingerosc_soar_2025.2.3,2025.2.4,60.97560976,Win32,space,0.1948,53.0,dominant,dominant
test4,test4_fo.csv,2,2020-01-01_12h00.00.000,fingerosc_soar_2025.2.3,2025.2.4,60.97560976,Win32,space,0.1736,54.0,dominant,dominant
test4,test4_fo.csv,2,2020-01-01_12h00.00.000,fingerosc_soar_2025.2.3,2025.2.4,60.97560976,Win32,space,0.166,55.0,dominant,dominant
test4,test4_fo.csv,2,2020-01-01_12h00.00.000,fingerosc_soar_2025.2.3,2025.2.4,60.97560976,Win32,space,0.1563,56.0,dominant,dominant
test4,test4_fo.csv,2,2020-01-01_12h00.00.000,fingerosc_soar_2025.2.3,2025.2.4,60.97560976,Win32,space,0.2005,57.0,dominant,dominant
test4,test4_fo.csv,2,2020-01-01_12h00.00.000,fingerosc_soar_2025.2.3,2025.2.4,60.97560976,Win32,space,0.1671,58.0,dominant,dominant
test4,test4_fo.csv,2,2020-01-01_12h00.00.000,fingerosc_soar_2025.2.3,2025.2.4,60.97560976,Win32,space,0.1917,59.0,dominant,dominant
test4,test4_fo.csv,2,2020-01-01_12h00.00.000,fingerosc_soar_2025.2.3,2025.2.4,60.97560976,Win32,space,0.1758,60.0,dominant,dominant
test4,test4_fo.csv,2,2020-01-01_12h00.00.000,fingerosc_soar_2025.2.3,2025.2.4,60.97560976,Win32,space,0.1602,61.0,dominant,dominant
test4,test4_fo.csv,2,2020-01-01_12h00.00.000,fingerosc_soar_2025.2.3,2025.2.4,60.97560976,Win32,space,0.1862,62.0,dominant,dominant
test4,test4_fo.csv,2,2020-01-01_12h00.00.000,fingerosc_soar_2025.2.3,2025.2.4,60.97560976,Win32,space,0.1506,63.0,dominant,dominant
test4,test4_fo.csv,2,2020-01-01_12h00.00.000,fingerosc_soar_2025.2.3,2025.2.4,60.97560976,Win32,space,0.1337,64.0,dominant,dominant
test4,test4_fo.csv,2,2020-01-01_12h00.00.000,fingerosc_soar_2025.2.3,2025.2.4,60.97560976,Win32,space,0.1381,65.0,dominant,dominant
test4,test4_fo.csv,2,2020-01-01_12h00.00.000,fingerosc_soar_2025.2.3,2025.2.4,60.97560976,Win32,space,0.1347,66.0,dominant,dominant
test4,test4_fo.csv,2,2020-01-01_12h00.00.000,fingerosc_soar_2025.2.3,2025.2.4,60.97560976,Win32,space,0.1413,67.0,dominant,dominant
test4,test4_fo.csv,2,2020-01-01_12h00.00.000,fingerosc_soar_2025.2.3,2025.2.4,60.97560976,Win32,space,0.1509,68.0,dominant,dominant
test4,test4_fo.csv,2,2020-01-01_12h00.00.000,fingerosc_soar_2025.2.3,2025.2.4,60.97560976,Win32,space,0.1539,69.0,dominant,dominant
test4,test4_fo.csv,2,2020-01-01_12h00.00.000,fingerosc_soar_2025.2.3,2025.2.4,60.97560976,Win32,space,0.142,70.0,dominant,dominant
test4,test4_fo.csv,2,2020-01-01_12h00.00.000,fingerosc_soar_2025.2.3,2025.2.4,60.97560976,Win32,space,0.1674,71.0,dominant,dominant
test4,test4_fo.csv,2,2020-01-01_12h00.00.000,fingerosc_soar_2025.2.3,2025.2.4,60.97560976,Win32,space,0.1501,72.0,dominant,dominant
test4,test4_fo.csv,2,2020-01-01_12h00.00.000,fingerosc_soar_2025.2.3,2025.2.4,60.97560976,Win32,space,0.1411,73.0,dominant,dominant
test4,test4_fo.csv,2,2020-01-01_12h00.00.000,fingerosc_soar_2025.2.3,2025.2.4,60.97560976,Win32,space,0.1434,74.0,dominant,dominant
test4,test4_fo.csv,2,2020-01-01_12h00.00.000,fingerosc_soar_2025.2.3,2025.2.4,60.97560976,Win32,space,0.1603,75.0,dominant,dominant
test4,test4_fo.csv,2,2020-01-01_12h00.00.000,fingerosc_soar_2025.2.3,2025.2.4,60.97560976,Win32,space,0.1676,76.0,dominant,dominant
test4,test4_fo.csv,2,2020-01-01_12h00.00.000,fingerosc_soar_2025.2.3,2025.2.4,60.97560976,Win32,space,0.1357,77.0,dominant,dominant
test4,test4_fo.csv,2,2020-01-01_12h00.00.000,fingerosc_soar_2025.2.3,2025.2.4,60.97560976,Win32,space,0.1539,78.0,dominant,dominant
test4,test4_fo.csv,2,2020-01-01_12h00.00.000,fingerosc_soar_2025.2.3,2025.2.4,60.97560976,Win32,space,0.1448,79.0,dominant,dominant
test4,test4_fo.csv,2,2020-01-01_12h00.00.000,fingerosc_soar_2025.2.3,2025.2.4,60.97560976,Win32,space,0.1569,80.0,dominant,dominant
test4,test4_fo.csv,2,2020-01-01_12h00.00.000,fingerosc_soar_2025.2.3,2025.2.4,60.97560976,Win32,space,0.1519,81.0,dominant,dominant
test4,test4_fo.csv,2,2020-01-01_12h00.00.000,fingerosc_soar_2025.2.3,2025.2.4,60.97560976,Win32,space,0.1522,82.0,dominant,dominant
test4,test4_fo.csv,2,2020-01-01_12h00.00.000,fingerosc_soar_2025.2.3,2025.2.4,60.97560976,Win32,space,0.1502,83.0,dominant,dominant
test4,test4_fo.csv,2,2020-01-01_12h00.00.000,fingerosc_soar_2025.2.3,2025.2.4,60.97560976,Win32,space,0.1512,84.0,dominant,dominant
test4,test4_fo.csv,2,2020-01-01_12h00.00.000,fingerosc_soar_2025.2.3,2025.2.4,60.97560976,Win32,space,0.1532,85.0,dominant,dominant
test4,test4_fo.csv,2,2020-01-01_12h00.00.000,fingerosc_soar_2025.2.3,2025.2.4,60.97560976,Win32,space,0.1394,86.0,dominant,dominant
test4,test4_fo.csv,2,2020-01-01_12h00.00.000,fingerosc_soar_2025.2.3,2025.2.4,60.97560976,Win32,space,0.1511,87.0,dominant,dominant
test4,test4_fo.csv,2,2020-01-01_12h00.00.000,fingerosc_soar_2025.2.3,2025.2.4,60.97560976,Win32,space,0.145,88.0,dominant,dominant
test4,test4_fo.csv,2,2020-01-01_12h00.00.000,fingerosc_soar_2025.2.3,2025.2.4,60.97560976,Win32,space,0.1491,89.0,dominant,dominant
test4,test4_fo.csv,2,2020-01-01_12h00.00.000,fingerosc_soar_2025.2.3,2025.2.4,60.97560976,Win32,space,0.1331,90.0,dominant,dominant
test4,test4_fo.csv,2,2020-01-01_12h00.00.000,fingerosc_soar_2025.2.3,2025.2.4,60.97560976,Win32,space,0.1421,91.0,dominant,dominant
test4,test4_fo.csv,2,2020-01-01_12h00.00.000,fingerosc_soar_2025.2.3,2025.2.4,60.97560976,Win32,space,0.1438,92.0,dominant,dominant
test4,test4_fo.csv,2,2020-01-01_12h00.00.000,fingerosc_soar_2025.2.3,2025.2.4,60.97560976,Win32,space,0.135,93.0,dominant,dominant
test4,test4_fo.csv,2,2020-01-01_12h00.00.000,fingerosc_soar_2025.2.3,2025.2.4,60.97560976,Win32,space,0.1222,94.0,dominant,dominant
test4,test4_fo.csv,2,2020-01-01_12h00.00.000,fingerosc_soar_2025.2.3,2025.2.4,60.97560976,Win32,space,0.1385,95.0,dominant,dominant
test4,test4_fo.csv,2,2020-01-01_12h00.00.000,fingerosc_soar_2025.2.3,2025.2.4,60.97560976,Win32,space,0.185,96.0,dominant,dominant
test4,test4_fo.csv,2,2020-01-01_12h00.00.000,fingerosc_soar_2025.2.3,2025.2.4,60.97560976,Win32,space,0.1335,97.0,dominant,dominant
test4,test4_fo.csv,2,2020-01-01_12h00.00.000,fingerosc_soar_2025.2.3,2025.2.4,60.97560976,Win32,space,0.185,98.0,dominant,dominant
test4,test4_fo.csv,2,2020-01-01_12h00.00.000,fingerosc_soar_2025.2.3,2025.2.4,60.97560976,Win32,space,0.2,99.0,dominant,dominant
test4,test4_fo.csv,2,2020-01-01_12h00.00.000,fingerosc_soar_2025.2.3,2025.2.4,60.97560976,Win32,space,0.1742,100.0,dominant,dominant
test4,test4_fo.csv,2,2020-01-01_12h00.00.000,fingerosc_soar_2025.2.3,2025.2.4,60.97560976,Win32,space,0.151,101.0,dominant,dominant
test4,test4_fo.csv,2,2020-01-01_12h00.00.000,fingerosc_soar_2025.2.3,2025.2.4,60.97560976,Win32,space,0.1765,102.0,dominant,dominant
test4,test4_fo.csv,2,2020-01-01_12h00.00.000,fingerosc_soar_2025.2.3,2025.2.4,60.97560976,Win32,space,0.1754,103.0,dominant,dominant
test4,test4_fo.csv,2,2020-01-01_12h00.00.000,fingerosc_soar_2025.2.3,2025.2.4,60.97560976,Win32,space,0.1667,104.0,dominant,dominant
test4,test4_fo.csv,2,2020-01-01_12h00.00.000,fingerosc_soar_2025.2.3,2025.2.4,60.97560976,Win32,space,0.1451,105.0,dominant,dominant
test4,test4_fo.csv,2,2020-01-01_12h00.00.000,fingerosc_soar_2025.2.3,2025.2.4,60.97560976,Win32,space,0.1498,106.0,dominant,dominant
test4,test4_fo.csv,2,2020-01-01_12h00.00.000,fingerosc_soar_2025.2.3,2025.2.4,60.97560976,Win32,space,0.1502,107.0,dominant,dominant
test4,test4_fo.csv,2,2020-01-01_12h00.00.000,fingerosc_soar_2025.2.3,2025.2.4,60.97560976,Win32,space,0.1608,108.0,dominant,dominant
test4,test4_fo.csv,2,2020-01-01_12h00.00.000,fingerosc_soar_2025.2.3,2025.2.4,60.97560976,Win32,space,0.1422,109.0,dominant,dominant
test4,test4_fo.csv,2,2020-01-01_12h00.00.000,fingerosc_soar_2025.2.3,2025.2.4,60.97560976,Win32,space,0.1497,110.0,dominant,dominant
test4,test4_fo.csv,2,2020-01-01_12h00.00.000,fingerosc_soar_2025.2.3,2025.2.4,60.97560976,Win32,space,0.1421,111.0,dominant,dominant
test4,test4_fo.csv,2,2020-01-01_12h00.00.000,fingerosc_soar_2025.2.3,2025.2.4,60.97560976,Win32,space,0.1563,112.0,dominant,dominant
test4,test4_fo.csv,2,2020-01-01_12h00.00.000,fingerosc_soar_2025.2.3,2025.2.4,60.97560976,Win32,space,0.1572,113.0,dominant,dominant
test4,test4_fo.csv,2,2020-01-01_12h00.00.000,fingerosc_soar_2025.2.3,2025.2.4,60.97560976,Win32,space,0.1438,114.0,dominant,dominant
test4,test4_fo.csv,2,2020-01-01_12h00.00.000,fingerosc_soar_2025.2.3,2025.2.4,60.97560976,Win32,space,0.153,115.0,dominant,dominant
test4,test4_fo.csv,2,2020-01-01_12h00.00.000,fingerosc_soar_2025.2.3,2025.2.4,60.97560976,Win32,space,0.1409,116.0,dominant,dominant
test4,test4_fo.csv,2,2020-01-01_12h00.00.000,fingerosc_soar_2025.2.3,2025.2.4,60.97560976,Win32,space,0.1491,117.0,dominant,dominant
test4,test4_fo.csv,2,2020-01-01_12h00.00.000,fingerosc_soar_2025.2.3,2025.2.4,60.97560976,Win32,space,0.1378,118.0,dominant,dominant
test4,test4_fo.csv,2,2020-01-01_12h00.00.000,fingerosc_soar_2025.2.3,2025.2.4,60.97560976,Win32,space,0.14,119.0,dominant,dominant
test4,test4_fo.csv,2,2020-01-01_12h00.00.000,fingerosc_soar_2025.2.3,2025.2.4,60.97560976,Win32,space,0.1427,120.0,dominant,dominant
test4,test4_fo.csv,2,2020-01-01_12h00.00.000,fingerosc_soar_2025.2.3,2025.2.4,60.97560976,Win32,space,0.1541,121.0,dominant,dominant
test4,test4_fo.csv,2,2020-01-01_12h00.00.000,fingerosc_soar_2025.2.3,2025.2.4,60.97560976,Win32,space,0.166,122.0,dominant,dominant
test4,test4_fo.csv,2,2020-01-01_12h00.00.000,fingerosc_soar_2025.2.3,2025.2.4,60.97560976,Win32,space,0.1497,123.0,dominant,dominant
test4,test4_fo.csv,2,2020-01-01_12h00.00.000,fingerosc_soar_2025.2.3,2025.2.4,60.97560976,Win32,space,0.1507,124.0,dominant,dominant
test4,test4_fo.csv,2,2020-01-01_12h00.00.000,fingerosc_soar_2025.2.3,2025.2.4,60.97560976,Win32,space,0.1393,125.0,dominant,dominant
test4,test4_fo.csv,2,2020-01-01_12h00.00.000,fingerosc_soar_2025.2.3,2025.2.4,60.97560976,Win32,space,0.1543,126.0,dominant,dominant
test4,test4_fo.csv,2,2020-01-01_12h00.00.000,fingerosc_soar_2025.2.3,2025.2.4,60.97560976,Win32,space,0.1579,127.0,dominant,dominant
test4,test4_fo.csv,2,2020-01-01_12h00.00.000,fingerosc_soar_2025.2.3,2025.2.4,60.97560976,Win32,space,0.16,128.0,dominant,dominant
test4,test4_fo.csv,2,2020-01-01_12h00.00.000,fingerosc_soar_2025.2.3,2025.2.4,60.97560976,Win32,space,0.1618,129.0,dominant,dominant
test4,test4_fo.csv,2,2020-01-01_12h00.00.000,fingerosc_soar_2025.2.3,2025.2.4,60.97560976,Win32,space,0.1766,130.0,dominant,dominant
test4,test4_fo.csv,2,2020-01-01_12h00.00.000,fingerosc_soar_2025.2.3,2025.2.4,60.97560976,Win32,space,0.1682,131.0,dominant,dominant
test4,test4_fo.csv,2,2020-01-01_12h00.00.000,fingerosc_soar_2025.2.3,2025.2.4,60.97560976,Win32,space,0.1565,132.0,dominant,dominant
test4,test4_fo.csv,2,2020-01-01_12h00.00.000,fingerosc_soar_2025.2.3,2025.2.4,60.97560976,Win32,space,0.1588,133.0,dominant,dominant
test4,test4_fo.csv,2,2020-01-01_12h00.00.000,fingerosc_soar_2025.2.3,2025.2.4,60.97560976,Win32,space,0.15,134.0,dominant,dominant
test4,test4_fo.csv,2,2020-01-01_12h00.00.000,fingerosc_soar_2025.2.3,2025.2.4,60.97560976,Win32,space,0.1447,135.0,dominant,dominant
test4,test4_fo.csv,2,2020-01-01_12h00.00.000,fingerosc_soar_2025.2.3,2025.2.4,60.97560976,Win32,space,0.1543,136.0,dominant,dominant
test4,test4_fo.csv,2,2020-01-01_12h00.00.000,fingerosc_soar_2025.2.3,2025.2.4,60.97560976,Win32,space,0.152,137.0,dominant,dominant
test4,test4_fo.csv,2,2020-01-01_12h00.00.000,fingerosc_soar_2025.2.3,2025.2.4,60.97560976,Win32,space,0.1531,138.0,dominant,dominant
test4,test4_fo.csv,2,2020-01-01_12h00.00.000,fingerosc_soar_2025.2.3,2025.2.4,60.97560976,Win32,space,0.1586,139.0,dominant,dominant
test4,test4_fo.csv,2,2020-01-01_12h00.00.000,fingerosc_soar_2025.2.3,2025.2.4,60.97560976,Win32,space,0.171,140.0,dominant,dominant
test4,test4_fo.csv,2,2020-01-01_12h00.00.000,fingerosc_soar_2025.2.3,2025.2.4,60.97560976,Win32,space,0.1506,141.0,dominant,dominant
test4,test4_fo.csv,2,2020-01-01_12h00.00.000,fingerosc_soar_2025.2.3,2025.2.4,60.97560976,Win32,space,0.1511,142.0,dominant,dominant
test4,test4_fo.csv,2,2020-01-01_12h00.00.000,fingerosc_soar_2025.2.3,2025.2.4,60.97560976,Win32,space,0.9504,0.0,nondominant,nondominant
test4,test4_fo.csv,2,2020-01-01_12h00.00.000,fingerosc_soar_2025.2.3,2025.2.4,60.97560976,Win32,space,0.1881,1.0,nondominant,nondominant
test4,test4_fo.csv,2,2020-01-01_12h00.00.000,fingerosc_soar_2025.2.3,2025.2.4,60.97560976,Win32,space,0.1688,2.0,nondominant,nondominant
test4,test4_fo.csv,2,2020-01-01_12h00.00.000,fingerosc_soar_2025.2.3,2025.2.4,60.97560976,Win32,space,0.3824,3.0,nondominant,nondominant
test4,test4_fo.csv,2,2020-01-01_12h00.00.000,fingerosc_soar_2025.2.3,2025.2.4,60.97560976,Win32,space,0.1669,4.0,nondominant,nondominant
test4,test4_fo.csv,2,2020-01-01_12h00.00.000,fingerosc_soar_2025.2.3,2025.2.4,60.97560976,Win32,space,0.1847,5.0,nondominant,nondominant
test4,test4_fo.csv,2,2020-01-01_12h00.00.000,fingerosc_soar_2025.2.3,2025.2.4,60.97560976,Win32,space,0.3209,6.0,nondominant,nondominant
test4,test4_fo.csv,2,2020-01-01_12h00.00.000,fingerosc_soar_2025.2.3,2025.2.4,60.97560976,Win32,space,0.1319,7.0,nondominant,nondominant
test4,test4_fo.csv,2,2020-01-01_12h00.00.000,fingerosc_soar_2025.2.3,2025.2.4,60.97560976,Win32,space,0.1981,8.0,nondominant,nondominant
test4,test4_fo.csv,2,2020-01-01_12h00.00.000,fingerosc_soar_2025.2.3,2025.2.4,60.97560976,Win32,space,0.1743,9.0,nondominant,nondominant
test4,test4_fo.csv,2,2020-01-01_12h00.00.000,fingerosc_soar_2025.2.3,2025.2.4,60.97560976,Win32,space,0.3329,10.0,nondominant,nondominant
test4,test4_fo.csv,2,2020-01-01_12h00.00.000,fingerosc_soar_2025.2.3,2025.2.4,60.97560976,Win32,space,0.1988,11.0,nondominant,nondominant
test4,test4_fo.csv,2,2020-01-01_12h00.00.000,fingerosc_soar_2025.2.3,2025.2.4,60.97560976,Win32,space,0.1933,12.0,nondominant,nondominant
test4,test4_fo.csv,2,2020-01-01_12h00.00.000,fingerosc_soar_2025.2.3,2025.2.4,60.97560976,Win32,space,0.1433,13.0,nondominant,nondominant
test4,test4_fo.csv,2,2020-01-01_12h00.00.000,fingerosc_soar_2025.2.3,2025.2.4,60.97560976,Win32,space,0.1864,14.0,nondominant,nondominant
test4,test4_fo.csv,2,2020-01-01_12h00.00.000,fingerosc_soar_2025.2.3,2025.2.4,60.97560976,Win32,space,0.1486,15.0,nondominant,nondominant
test4,test4_fo.csv,2,2020-01-01_12h00.00.000,fingerosc_soar_2025.2.3,2025.2.4,60.97560976,Win32,space,0.1629,16.0,nondominant,nondominant
test4,test4_fo.csv,2,2020-01-01_12h00.00.000,fingerosc_soar_2025.2.3,2025.2.4,60.97560976,Win32,space,0.2002,17.0,nondominant,nondominant
test4,test4_fo.csv,2,2020-01-01_12h00.00.000,fingerosc_soar_2025.2.3,2025.2.4,60.97560976,Win32,space,0.1974,18.0,nondominant,nondominant
test4,test4_fo.csv,2,2020-01-01_12h00.00.000,fingerosc_soar_2025.2.3,2025.2.4,60.97560976,Win32,space,0.1665,19.0,nondominant,nondominant
test4,test4_fo.csv,2,2020-01-01_12h00.00.000,fingerosc_soar_2025.2.3,2025.2.4,60.97560976,Win32,space,0.1672,20.0,nondominant,nondominant
test4,test4_fo.csv,2,2020-01-01_12h00.00.000,fingerosc_soar_2025.2.3,2025.2.4,60.97560976,Win32,space,0.1645,21.0,nondominant,nondominant
test4,test4_fo.csv,2,2020-01-01_12h00.00.000,fingerosc_soar_2025.2.3,2025.2.4,60.97560976,Win32,space,0.1539,22.0,nondominant,nondominant
test4,test4_fo.csv,2,2020-01-01_12h00.00.000,fingerosc_soar_2025.2.3,2025.2.4,60.97560976,Win32,space,0.1487,23.0,nondominant,nondominant
test4,test4_fo.csv,2,2020-01-01_12h00.00.000,fingerosc_soar_2025.2.3,2025.2.4,60.97560976,Win32,space,0.1535,24.0,nondominant,nondominant
test4,test4_fo.csv,2,2020-01-01_12h00.00.000,fingerosc_soar_2025.2.3,2025.2.4,60.97560976,Win32,space,0.1645,25.0,nondominant,nondominant
test4,test4_fo.csv,2,2020-01-01_12h00.00.000,fingerosc_soar_2025.2.3,2025.2.4,60.97560976,Win32,space,0.3497,26.0,nondominant,nondominant
test4,test4_fo.csv,2,2020-01-01_12h00.00.000,fingerosc_soar_2025.2.3,2025.2.4,60.97560976,Win32,space,0.2158,27.0,nondominant,nondominant
test4,test4_fo.csv,2,2020-01-01_12h00.00.000,fingerosc_soar_2025.2.3,2025.2.4,60.97560976,Win32,space,0.1968,28.0,nondominant,nondominant
test4,test4_fo.csv,2,2020-01-01_12h00.00.000,fingerosc_soar_2025.2.3,2025.2.4,60.97560976,Win32,space,0.1831,29.0,nondominant,nondominant
test4,test4_fo.csv,2,2020-01-01_12h00.00.000,fingerosc_soar_2025.2.3,2025.2.4,60.97560976,Win32,space,0.1822,30.0,nondominant,nondominant
test4,test4_fo.csv,2,2020-01-01_12h00.00.000,fingerosc_soar_2025.2.3,2025.2.4,60.97560976,Win32,space,0.182,31.0,nondominant,nondominant
test4,test4_fo.csv,2,2020-01-01_12h00.00.000,fingerosc_soar_2025.2.3,2025.2.4,60.97560976,Win32,space,0.1724,32.0,nondominant,nondominant
test4,test4_fo.csv,2,2020-01-01_12h00.00.000,fingerosc_soar_2025.2.3,2025.2.4,60.97560976,Win32,space,0.1825,33.0,nondominant,nondominant
test4,test4_fo.csv,2,2020-01-01_12h00.00.000,fingerosc_soar_2025.2.3,2025.2.4,60.97560976,Win32,space,0.155,34.0,nondominant,nondominant
test4,test4_fo.csv,2,2020-01-01_12h00.00.000,fingerosc_soar_2025.2.3,2025.2.4,60.97560976,Win32,space,0.1726,35.0,nondominant,nondominant
test4,test4_fo.csv,2,2020-01-01_12h00.00.000,fingerosc_soar_2025.2.3,2025.2.4,60.97560976,Win32,space,0.1988,36.0,nondominant,nondominant
test4,test4_fo.csv,2,2020-01-01_12h00.00.000,fingerosc_soar_2025.2.3,2025.2.4,60.97560976,Win32,space,0.1643,37.0,nondominant,nondominant
test4,test4_fo.csv,2,2020-01-01_12h00.00.000,fingerosc_soar_2025.2.3,2025.2.4,60.97560976,Win32,space,0.1865,38.0,nondominant,nondominant
test4,test4_fo.csv,2,2020-01-01_12h00.00.000,fingerosc_soar_2025.2.3,2025.2.4,60.97560976,Win32,space,0.1658,39.0,nondominant,nondominant
test4,test4_fo.csv,2,2020-01-01_12h00.00.000,fingerosc_soar_2025.2.3,2025.2.4,60.97560976,Win32,space,0.1746,40.0,nondominant,nondominant
test4,test4_fo.csv,2,2020-01-01_12h00.00.000,fingerosc_soar_2025.2.3,2025.2.4,60.97560976,Win32,space,0.1831,41.0,nondominant,nondominant
test4,test4_fo.csv,2,2020-01-01_12h00.00.000,fingerosc_soar_2025.2.3,2025.2.4,60.97560976,Win32,space,0.2669,42.0,nondominant,nondominant
test4,test4_fo.csv,2,2020-01-01_12h00.00.000,fingerosc_soar_2025.2.3,2025.2.4,60.97560976,Win32,space,0.2506,43.0,nondominant,nondominant
test4,test4_fo.csv,2,2020-01-01_12h00.00.000,fingerosc_soar_2025.2.3,2025.2.4,60.97560976,Win32,space,0.1813,44.0,nondominant,nondominant
test4,test4_fo.csv,2,2020-01-01_12h00.00.000,fingerosc_soar_2025.2.3,2025.2.4,60.97560976,Win32,space,0.1798,45.0,nondominant,nondominant
test4,test4_fo.csv,2,2020-01-01_12h00.00.000,fingerosc_soar_2025.2.3,2025.2.4,60.97560976,Win32,space,0.1991,46.0,nondominant,nondominant
test4,test4_fo.csv,2,2020-01-01_12h00.00.000,fingerosc_soar_2025.2.3,2025.2.4,60.97560976,Win32,space,0.1673,47.0,nondominant,nondominant
test4,test4_fo.csv,2,2020-01-01_12h00.00.000,fingerosc_soar_2025.2.3,2025.2.4,60.97560976,Win32,space,0.199,48.0,nondominant,nondominant
test4,test4_fo.csv,2,2020-01-01_12h00.00.000,fingerosc_soar_2025.2.3,2025.2.4,60.97560976,Win32,space,0.1684,49.0,nondominant,nondominant
test4,test4_fo.csv,2,2020-01-01_12h00.00.000,fingerosc_soar_2025.2.3,2025.2.4,60.97560976,Win32,space,0.1843,50.0,nondominant,nondominant
test4,test4_fo.csv,2,2020-01-01_12h00.00.000,fingerosc_soar_2025.2.3,2025.2.4,60.97560976,Win32,space,0.1972,51.0,nondominant,nondominant
test4,test4_fo.csv,2,2020-01-01_12h00.00.000,fingerosc_soar_2025.2.3,2025.2.4,60.97560976,Win32,space,0.2048,52.0,nondominant,nondominant
test4,test4_fo.csv,2,2020-01-01_12h00.00.000,fingerosc_soar_2025.2.3,2025.2.4,60.97560976,Win32,space,0.2076,53.0,nondominant,nondominant
test4,test4_fo.csv,2,2020-01-01_12h00.00.000,fingerosc_soar_2025.2.3,2025.2.4,60.97560976,Win32,space,0.1972,54.0,nondominant,nondominant
test4,test4_fo.csv,2,2020-01-01_12h00.00.000,fingerosc_soar_2025.2.3,2025.2.4,60.97560976,Win32,space,0.1925,55.0,nondominant,nondominant
test4,test4_fo.csv,2,2020-01-01_12h00.00.000,fingerosc_soar_2025.2.3,2025.2.4,60.97560976,Win32,space,0.1889,56.0,nondominant,nondominant
test4,test4_fo.csv,2,2020-01-01_12h00.00.000,fingerosc_soar_2025.2.3,2025.2.4,60.97560976,Win32,space,0.1827,57.0,nondominant,nondominant
test4,test4_fo.csv,2,2020-01-01_12h00.00.000,fingerosc_soar_2025.2.3,2025.2.4,60.97560976,Win32,space,0.1715,58.0,nondominant,nondominant
test4,test4_fo.csv,2,2020-01-01_12h00.00.000,fingerosc_soar_2025.2.3,2025.2.4,60.97560976,Win32,space,0.2027,59.0,nondominant,nondominant
test4,test4_fo.csv,2,2020-01-01_12h00.00.000,fingerosc_soar_2025.2.3,2025.2.4,60.97560976,Win32,space,0.2187,60.0,nondominant,nondominant
test4,test4_fo.csv,2,2020-01-01_12h00.00.000,fingerosc_soar_2025.2.3,2025.2.4,60.97560976,Win32,space,0.1826,61.0,nondominant,nondominant
test4,test4_fo.csv,2,2020-01-01_12h00.00.000,fingerosc_soar_2025.2.3,2025.2.4,60.97560976,Win32,space,0.1862,62.0,nondominant,nondominant
test4,test4_fo.csv,2,2020-01-01_12h00.00.000,fingerosc_soar_2025.2.3,2025.2.4,60.97560976,Win32,space,0.1726,63.0,nondominant,nondominant
test4,test4_fo.csv,2,2020-01-01_12h00.00.000,fingerosc_soar_2025.2.3,2025.2.4,60.97560976,Win32,space,0.2154,64.0,nondominant,nondominant
test4,test4_fo.csv,2,2020-01-01_12h00.00.000,fingerosc_soar_2025.2.3,2025.2.4,60.97560976,Win32,space,0.1735,65.0,nondominant,nondominant
test4,test4_fo.csv,2,2020-01-01_12h00.00.000,fingerosc_soar_2025.2.3,2025.2.4,60.97560976,Win32,space,0.199,66.0,nondominant,nondominant
test4,test4_fo.csv,2,2020-01-01_12h00.00.000,fingerosc_soar_2025.2.3,2025.2.4,60.97560976,Win32,space,0.1831,67.0,nondominant,nondominant
test4,test4_fo.csv,2,2020-01-01_12h00.00.000,fingerosc_soar_2025.2.3,2025.2.4,60.97560976,Win32,space,0.1843,68.0,nondominant,nondominant
test4,test4_fo.csv,2,2020-01-01_12h00.00.000,fingerosc_soar_2025.2.3,2025.2.4,60.97560976,Win32,space,0.1978,69.0,nondominant,nondominant
test4,test4_fo.csv,2,2020-01-01_12h00.00.000,fingerosc_soar_2025.2.3,2025.2.4,60.97560976,Win32,space,0.2024,70.0,nondominant,nondominant
test4,test4_fo.csv,2,2020-01-01_12h00.00.000,fingerosc_soar_2025.2.3,2025.2.4,60.97560976,Win32,space,0.1913,71.0,nondominant,nondominant
test4,test4_fo.csv,2,2020-01-01_12h00.00.000,fingerosc_soar_2025.2.3,2025.2.4,60.97560976,Win32,space,0.2029,72.0,nondominant,nondominant
test4,test4_fo.csv,2,2020-01-01_12h00.00.000,fingerosc_soar_2025.2.3,2025.2.4,60.97560976,Win32,space,0.2154,73.0,nondominant,nondominant
test4,test4_fo.csv,2,2020-01-01_12h00.00.000,fingerosc_soar_2025.2.3,2025.2.4,60.97560976,Win32,space,0.1887,74.0,nondominant,nondominant
test4,test4_fo.csv,2,2020-01-01_12h00.00.000,fingerosc_soar_2025.2.3,2025.2.4,60.97560976,Win32,space,0.2012,75.0,nondominant,nondominant
test4,test4_fo.csv,2,2020-01-01_12h00.00.000,fingerosc_soar_2025.2.3,2025.2.4,60.97560976,Win32,space,0.1978,76.0,nondominant,nondominant
test4,test4_fo.csv,2,2020-01-01_12h00.00.000,fingerosc_soar_2025.2.3,2025.2.4,60.97560976,Win32,space,0.1753,77.0,nondominant,nondominant
test4,test4_fo.csv,2,2020-01-01_12h00.00.000,fingerosc_soar_2025.2.3,2025.2.4,60.97560976,Win32,space,0.2233,78.0,nondominant,nondominant
test4,test4_fo.csv,2,2020-01-01_12h00.00.000,fingerosc_soar_2025.2.3,2025.2.4,60.97560976,Win32,space,0.1931,79.0,nondominant,nondominant
test4,test4_fo.csv,2,2020-01-01_12h00.00.000,fingerosc_soar_2025.2.3,2025.2.4,60.97560976,Win32,space,0.2181,80.0,nondominant,nondominant
test4,test4_fo.csv,2,2020-01-01_12h00.00.000,fingerosc_soar_2025.2.3,2025.2.4,60.97560976,Win32,space,0.1978,81.0,nondominant,nondominant
test4,test4_fo.csv,2,2020-01-01_12h00.00.000,fingerosc_soar_2025.2.3,2025.2.4,60.97560976,Win32,space,0.1992,82.0,nondominant,nondominant
test4,test4_fo.csv,2,2020-01-01_12h00.00.000,fingerosc_soar_2025.2.3,2025.2.4,60.97560976,Win32,space,0.1907,83.0,nondominant,nondominant
test4,test4_fo.csv,2,2020-01-01_12h00.00.000,fingerosc_soar_2025.2.3,2025.2.4,60.97560976,Win32,space,0.1877,84.0,nondominant,nondominant
test4,test4_fo.csv,2,2020-01-01_12h00.00.000,fingerosc_soar_2025.2.3,2025.2.4,60.97560976,Win32,space,0.1996,85.0,nondominant,nondominant
test4,test4_fo.csv,2,2020-01-01_12h00.00.000,fingerosc_soar_2025.2.3,2025.2.4,60.97560976,Win32,space,0.2164,86.0,nondominant,nondominant
test4,test4_fo.csv,2,2020-01-01_12h00.00.000,fingerosc_soar_2025.2.3,2025.2.4,60.97560976,Win32,space,0.1821,87.0,nondominant,nondominant
test4,test4_fo.csv,2,2020-01-01_12h00.00.000,fingerosc_soar_2025.2.3,2025.2.4,60.97560976,Win32,space,0.2224,88.0,nondominant,nondominant
test4,test4_fo.csv,2,2020-01-01_12h00.00.000,fingerosc_soar_2025.2.3,2025.2.4,60.97560976,Win32,space,0.1684,89.0,nondominant,nondominant
test4,test4_fo.csv,2,2020-01-01_12h00.00.000,fingerosc_soar_2025.2.3,2025.2.4,60.97560976,Win32,space,0.1842,90.0,nondominant,nondominant
test4,test4_fo.csv,2,2020-01-01_12h00.00.000,fingerosc_soar_2025.2.3,2025.2.4,60.97560976,Win32,space,0.2323,91.0,nondominant,nondominant
test4,test4_fo.csv,2,2020-01-01_12h00.00.000,fingerosc_soar_2025.2.3,2025.2.4,60.97560976,Win32,space,0.1907,92.0,nondominant,nondominant
test4,test4_fo.csv,2,2020-01-01_12h00.00.000,fingerosc_soar_2025.2.3,2025.2.4,60.97560976,Win32,space,0.1999,93.0,nondominant,nondominant
test4,test4_fo.csv,2,2020-01-01_12h00.00.000,fingerosc_soar_2025.2.3,2025.2.4,60.97560976,Win32,space,0.1876,94.0,nondominant,nondominant
test4,test4_fo.csv,2,2020-01-01_12h00.00.000,fingerosc_soar_2025.2.3,2025.2.4,60.97560976,Win32,space,0.2014,95.0,nondominant,nondominant
test4,test4_fo.csv,2,2020-01-01_12h00.00.000,fingerosc_soar_2025.2.3,2025.2.4,60.97560976,Win32,space,0.1678,96.0,nondominant,nondominant
test4,test4_fo.csv,2,2020-01-01_12h00.00.000,fingerosc_soar_2025.2.3,2025.2.4,60.97560976,Win32,space,0.2087,97.0,nondominant,nondominant
test4,test4_fo.csv,2,2020-01-01_12h00.00.000,fingerosc_soar_2025.2.3,2025.2.4,60.97560976,Win32,space,0.2721,98.0,nondominant,nondominant
test4,test4_fo.csv,2,2020-01-01_12h00.00.000,fingerosc_soar_2025.2.3,2025.2.4,60.97560976,Win32,space,0.2827,99.0,nondominant,nondominant
test4,test4_fo.csv,2,2020-01-01_12h00.00.000,fingerosc_soar_2025.2.3,2025.2.4,60.97560976,Win32,space,0.1764,100.0,nondominant,nondominant
test4,test4_fo.csv,2,2020-01-01_12h00.00.000,fingerosc_soar_2025.2.3,2025.2.4,60.97560976,Win32,space,0.2317,101.0,nondominant,nondominant
test4,test4_fo.csv,2,2020-01-01_12h00.00.000,fingerosc_soar_2025.2.3,2025.2.4,60.97560976,Win32,space,0.2157,102.0,nondominant,nondominant
test4,test4_fo.csv,2,2020-01-01_12h00.00.000,fingerosc_soar_2025.2.3,2025.2.4,60.97560976,Win32,space,0.1555,103.0,nondominant,nondominant
test4,test4_fo.csv,2,2020-01-01_12h00.00.000,fingerosc_soar_2025.2.3,2025.2.4,60.97560976,Win32,space,0.2166,104.0,nondominant,nondominant
test4,test4_fo.csv,2,2020-01-01_12h00.00.000,fingerosc_soar_2025.2.3,2025.2.4,60.97560976,Win32,space,0.268,105.0,nondominant,nondominant
test4,test4_fo.csv,2,2020-01-01_12h00.00.000,fingerosc_soar_2025.2.3,2025.2.4,60.97560976,Win32,space,0.2842,106.0,nondominant,nondominant
test4,test4_fo.csv,2,2020-01-01_12h00.00.000,fingerosc_soar_2025.2.3,2025.2.4,60.97560976,Win32,space,0.2186,107.0,nondominant,nondominant
test4,test4_fo.csv,2,2020-01-01_12h00.00.000,fingerosc_soar_2025.2.3,2025.2.4,60.97560976,Win32,space,0.1894,108.0,nondominant,nondominant
test4,test4_fo.csv,2,2020-01-01_12h00.00.000,fingerosc_soar_2025.2.3,2025.2.4,60.97560976,Win32,space,0.2526,109.0,nondominant,nondominant
test4,test4_fo.csv,2,2020-01-01_12h00.00.000,fingerosc_soar_2025.2.3,2025.2.4,60.97560976,Win32,space,0.2158,110.0,nondominant,nondominant
test4,test4_fo.csv,2,2020-01-01_12h00.00.000,fingerosc_soar_2025.2.3,2025.2.4,60.97560976,Win32,space,0.2178,111.0,nondominant,nondominant
test4,test4_fo.csv,2,2020-01-01_12h00.00.000,fingerosc_soar_2025.2.3,2025.2.4,60.97560976,Win32,space,0.1659,112.0,nondominant,nondominant
test4,test4_fo.csv,2,2020-01-01_12h00.00.000,fingerosc_soar_2025.2.3,2025.2.4,60.97560976,Win32,space,0.1884,113.0,nondominant,nondominant
test4,test4_fo.csv,2,2020-01-01_12h00.00.000,fingerosc_soar_2025.2.3,2025.2.4,60.97560976,Win32,space,0.2165,114.0,nondominant,nondominant
test4,test4_fo.csv,2,2020-01-01_12h00.00.000,fingerosc_soar_2025.2.3,2025.2.4,60.97560976,Win32,space,0.186,115.0,nondominant,nondominant
test4,test4_fo.csv,2,2020-01-01_12h00.00.000,fingerosc_soar_2025.2.3,2025.2.4,60.97560976,Win32,space,0.2074,116.0,nondominant,nondominant
test4,test4_fo.csv,2,2020-01-01_12h00.00.000,fingerosc_soar_2025.2.3,2025.2.4,60.97560976,Win32,space,0.1815,117.0,nondominant,nondominant
test4,test4_fo.csv,2,2020-01-01_12h00.00.000,fingerosc_soar_2025.2.3,2025.2.4,60.97560976,Win32,space,0.2324,118.0,nondominant,nondominant
test4,test4_fo.csv,2,2020-01-01_12h00.00.000,fingerosc_soar_2025.2.3,2025.2.4,60.97560976,Win32,space,0.1828,119.0,nondominant,nondominant
test4,test4_fo.csv,2,2020-01-01_12h00.00.000,fingerosc_soar_2025.2.3,2025.2.4,60.97560976,Win32,space,0.2173,120.0,nondominant,nondominant
test4,test4_fo.csv,2,2020-01-01_12h00.00.000,fingerosc_soar_2025.2.3,2025.2.4,60.97560976,Win32,space,0.1857,121.0,nondominant,nondominant
test4,test4_fo.csv,2,2020-01-01_12h00.00.000,fingerosc_soar_2025.2.3,2025.2.4,60.97560976,Win32,space,0.2334,122.0,nondominant,nondominant
test4,test4_fo.csv,2,2020-01-01_12h00.00.000,fingerosc_soar_2025.2.3,2025.2.4,60.97560976,Win32,space,0.1867,123.0,nondominant,nondominant
test4,test4_fo.csv,2,2020-01-01_12h00.00.000,fingerosc_soar_2025.2.3,2025.2.4,60.97560976,Win32,space,0.1741,124.0,nondominant,nondominant
test4,test4_fo.csv,2,2020-01-01_12h00.00.000,fingerosc_soar_2025.2.3,2025.2.4,60.97560976,Win32,space,0.2046,125.0,nondominant,nondominant
test4,test4_fo.csv,2,2020-01-01_12h00.00.000,fingerosc_soar_2025.2.3,2025.2.4,60.97560976,Win32,space,0.2156,126.0,nondominant,nondominant
test4,test4_fo.csv,2,2020-01-01_12h00.00.000,fingerosc_soar_2025.2.3,2025.2.4,60.97560976,Win32,space,0.1737,127.0,nondominant,nondominant
test4,test4_fo.csv,2,2020-01-01_12h00.00.000,fingerosc_soar_2025.2.3,2025.2.4,60.97560976,Win32,space,0.1991,128.0,nondominant,nondominant
test4,test4_fo.csv,2,2020-01-01_12h00.00.000,fingerosc_soar_2025.2.3,2025.2.4,60.97560976,Win32,space,0.1661,129.0,nondominant,nondominant
test4,test4_fo.csv,2,2020-01-01_12h00.00.000,fingerosc_soar_2025.2.3,2025.2.4,60.97560976,Win32,space,0.216,130.0,nondominant,nondominant
test4,test4_fo.csv,2,2020-01-01_12h00.00.000,fingerosc_soar_2025.2.3,2025.2.4,60.97560976,Win32,space,0.184,131.0,nondominant,nondominant
test4,test4_fo.csv,2,2020-01-01_12h00.00.000,fingerosc_soar_2025.2.3,2025.2.4,60.97560976,Win32,space,0.2314,132.0,nondominant,nondominant
test4,test4_fo.csv,2,2020-01-01_12h00.00.000,fingerosc_soar_2025.2.3,2025.2.4,60.97560976,Win32,space,0.187,133.0,nondominant,nondominant
test4,test4_fo.csv,2,2020-01-01_12h00.00.000,fingerosc_soar_2025.2.3,2025.2.4,60.97560976,Win32,space,0.2037,134.0,nondominant,nondominant
test4,test4_fo.csv,2,2020-01-01_12h00.00.000,fingerosc_soar_2025.2.3,2025.2.4,60.97560976,Win32,space,0.192,135.0,nondominant,nondominant
test4,test4_fo.csv,2,2020-01-01_12h00.00.000,fingerosc_soar_2025.2.3,2025.2.4,60.97560976,Win32,space,0.2017,136.0,nondominant,nondominant
test4,test4_fo.csv,2,2020-01-01_12h00.00.000,fingerosc_soar_2025.2.3,2025.2.4,60.97560976,Win32,space,0.2042,137.0,nondominant,nondominant
test4,test4_fo.csv,2,2020-01-01_12h00.00.000,fingerosc_soar_2025.2.3,2025.2.4,60.97560976,Win32,space,0.1988,138.0,nondominant,nondominant
test4,test4_fo.csv,2,2020-01-01_12h00.00.000,fingerosc_soar_2025.2.3,2025.2.4,60.97560976,Win32,space,0.211,139.0,nondominant,nondominant
test4,test4_fo.csv,2,2020-01-01_12h00.00.000,fingerosc_soar_2025.2.3,2025.2.4,60.97560976,Win32,space,0.1829,140.0,nondominant,nondominant
test4,test4_fo.csv,2,2020-01-01_12h00.00.000,fingerosc_soar_2025.2.3,2025.2.4,60.97560976,Win32,space,0.2153,141.0,nondominant,nondominant
test4,test4_fo.csv,2,2020-01-01_12h00.00.000,fingerosc_soar_2025.2.3,2025.2.4,60.97560976,Win32,space,0.1993,142.0,nondominant,nondominant
