id,filename,session,datetime,exp_name,software_version,framerate,os,event_type,cue,correct_resp,response,rt,trial,left_choice,middle_choice,right_choice,stim_onset,stim_offset,iti_onset,iti_offset,iti_dur,cue_dur,stim_with_cue_dur,left_choice_class,left_choice_type,left_choice_color,left_choice_shape,middle_choice_class,middle_choice_type,middle_choice_color,middle_choice_shape,right_choice_class,right_choice_type,right_choice_color,right_choice_shape,block,block_nunique_cues,block_switch_rep,num_responses,first_response,first_response_rt,last_response,last_response_rt,correct,correct_resp_rt,multiple_responses,last_response_correct
sert_test_3,example_data_psychopy_sert_3.csv,1,2025-12-22_11h34.06.770,sert_artemis_2025.2.3,2025.2.3,59.17159763,Win32,objects,color,1.0,['1'],[0.9571999999880632],0.0,images/Safe_BearHug_Orange_Oval.png,images/Safe_Goggles_Blue_Rect.png,images/Lethal_Pills_Blue_Oval.png,439.7405,441.7869,441.7871,442.137,0.35,0.15,1.9,Safe,BearHug,Orange,Oval,Safe,Goggles,Blue,Rect,Lethal,Pills,Blue,Oval,1.0,3,switch,1.0,1.0,0.9571999999880632,1.0,0.9571999999880632,1.0,0.9571999999880632,0.0,1.0
sert_test_3,example_data_psychopy_sert_3.csv,1,2025-12-22_11h34.06.770,sert_artemis_2025.2.3,2025.2.3,59.17159763,Win32,objects,shape,1.0,['1'],[1.5248000000119077],1.0,images/Lethal_Noose_1_Blue_Oval.png,images/Lethal_Razor_Orange_Rhom.png,images/Safe_SeatBelt_Blue_Rhom.png,442.1414,444.1868,444.1869,444.5369,0.35,0.15,1.9,Lethal,Noose_1,Blue,Oval,Lethal,Razor,Orange,Rhom,Safe,SeatBelt,Blue,Rhom,1.0,3,switch,1.0,1.0,1.5248000000119077,1.0,1.5248000000119077,1.0,1.5248000000119077,0.0,1.0
sert_test_3,example_data_psychopy_sert_3.csv,1,2025-12-22_11h34.06.770,sert_artemis_2025.2.3,2025.2.3,59.17159763,Win32,objects,lethal,2.0,"['3', '2']","[1.5115999999642327, 1.6396999999880677]",2.0,images/Lethal_Gun_1_Orange_Rhom.png,images/Safe_Extinguisher_Orange_Oval.png,images/Lethal_Knife_Blue_Oval.png,444.5392,446.5868,446.5869,446.9369,0.35,0.15,1.9,Lethal,Gun_1,Orange,Rhom,Safe,Extinguisher,Orange,Oval,Lethal,Knife,Blue,Oval,1.0,3,switch,2.0,3.0,1.5115999999642327,2.0,1.6396999999880677,1.0,1.6396999999880677,1.0,1.0
sert_test_3,example_data_psychopy_sert_3.csv,1,2025-12-22_11h34.06.770,sert_artemis_2025.2.3,2025.2.3,59.17159763,Win32,objects,color,3.0,['3'],[1.4154000000357883],3.0,images/Safe_Goggles_Orange_Rect.png,images/Lethal_Poison_Orange_Oval.png,images/Safe_LifeVest_Blue_Oval.png,446.9386,448.9867,448.9868,449.4368,0.45,0.15,1.9,Safe,Goggles,Orange,Rect,Lethal,Poison,Orange,Oval,Safe,LifeVest,Blue,Oval,1.0,3,switch,1.0,3.0,1.4154000000357883,3.0,1.4154000000357883,1.0,1.4154000000357883,0.0,1.0
sert_test_3,example_data_psychopy_sert_3.csv,1,2025-12-22_11h34.06.770,sert_artemis_2025.2.3,2025.2.3,59.17159763,Win32,objects,shape,2.0,"['1', '2']","[1.0116000000238614, 1.6996000000238496]",4.0,images/Inert_Orange_Orange_Rhom.png,images/Inert_Camera_Blue_Rect.png,images/Lethal_Pills_Blue_Rhom.png,449.4385,451.4865,451.4865,451.8368,0.35,0.15,1.9,Inert,Orange,Orange,Rhom,Inert,Camera,Blue,Rect,Lethal,Pills,Blue,Rhom,1.0,3,switch,2.0,1.0,1.0116000000238614,2.0,1.6996000000238496,1.0,1.6996000000238496,1.0,1.0
sert_test_3,example_data_psychopy_sert_3.csv,1,2025-12-22_11h34.06.770,sert_artemis_2025.2.3,2025.2.3,59.17159763,Win32,objects,lethal,2.0,['2'],[1.9859000000357696],5.0,images/Lethal_Noose_1_Blue_Rhom.png,images/Inert_Hat_Orange_Rhom.png,images/Lethal_Poison_Orange_Oval.png,451.8388,453.8859,453.8859,454.2365,0.35,0.15,1.9,Lethal,Noose_1,Blue,Rhom,Inert,Hat,Orange,Rhom,Lethal,Poison,Orange,Oval,1.0,3,switch,1.0,2.0,1.9859000000357696,2.0,1.9859000000357696,1.0,1.9859000000357696,0.0,1.0
sert_test_3,example_data_psychopy_sert_3.csv,1,2025-12-22_11h34.06.770,sert_artemis_2025.2.3,2025.2.3,59.17159763,Win32,objects,lethal,1.0,"['3', '1']","[1.49970000004771, 1.9165000000000418]",6.0,images/Lethal_Gun_1_Blue_Rhom.png,images/Inert_Hairbrush_Orange_Rhom.png,images/Inert_Strawberry_Blue_Rect.png,454.2373,456.2861,456.2862,456.6366,0.35,0.15,1.9,Lethal,Gun_1,Blue,Rhom,Inert,Hairbrush,Orange,Rhom,Inert,Strawberry,Blue,Rect,1.0,3,switch,2.0,3.0,1.49970000004771,1.0,1.9165000000000418,1.0,1.9165000000000418,1.0,1.0
sert_test_3,example_data_psychopy_sert_3.csv,1,2025-12-22_11h34.06.770,sert_artemis_2025.2.3,2025.2.3,59.17159763,Win32,objects,color,2.0,['2'],[1.907800000011889],7.0,images/Inert_Hat_Orange_Oval.png,images/Safe_Buoy_Blue_Oval.png,images/Safe_SeatBelt_Orange_Rect.png,456.6384,458.6868,458.6868,459.0367,0.35,0.15,1.9,Inert,Hat,Orange,Oval,Safe,Buoy,Blue,Oval,Safe,SeatBelt,Orange,Rect,1.0,3,switch,1.0,2.0,1.907800000011889,2.0,1.907800000011889,1.0,1.907800000011889,0.0,1.0
sert_test_3,example_data_psychopy_sert_3.csv,1,2025-12-22_11h34.06.770,sert_artemis_2025.2.3,2025.2.3,59.17159763,Win32,objects,color,3.0,['3'],[0.9826000000238082],8.0,images/Safe_BearHug_Blue_Rect.png,images/Lethal_Razor_Blue_Rhom.png,images/Safe_Buoy_Orange_Rhom.png,459.0379,461.0868,461.0869,461.4368,0.35,0.15,1.9,Safe,BearHug,Blue,Rect,Lethal,Razor,Blue,Rhom,Safe,Buoy,Orange,Rhom,1.0,3,switch,1.0,3.0,0.9826000000238082,3.0,0.9826000000238082,1.0,0.9826000000238082,0.0,1.0
sert_test_3,example_data_psychopy_sert_3.csv,1,2025-12-22_11h34.06.770,sert_artemis_2025.2.3,2025.2.3,59.17159763,Win32,objects,shape,3.0,['3'],[1.570900000035806],9.0,images/Lethal_Poison_Orange_Rect.png,images/Safe_Extinguisher_Blue_Rect.png,images/Safe_SeatBelt_Orange_Rhom.png,461.4389,463.4857,463.4857,464.036,0.55,0.15,1.9,Lethal,Poison,Orange,Rect,Safe,Extinguisher,Blue,Rect,Safe,SeatBelt,Orange,Rhom,1.0,3,switch,1.0,3.0,1.570900000035806,3.0,1.570900000035806,1.0,1.570900000035806,0.0,1.0
sert_test_3,example_data_psychopy_sert_3.csv,1,2025-12-22_11h34.06.770,sert_artemis_2025.2.3,2025.2.3,59.17159763,Win32,objects,color,1.0,['1'],[0.9903000000118709],10.0,images/Safe_Buoy_Blue_Rhom.png,images/Safe_BearHug_Orange_Oval.png,images/Lethal_Gun_1_Orange_Rhom.png,464.0377,466.0868,466.0869,466.6362,0.55,0.15,1.9,Safe,Buoy,Blue,Rhom,Safe,BearHug,Orange,Oval,Lethal,Gun_1,Orange,Rhom,2.0,1,repeat,1.0,1.0,0.9903000000118709,1.0,0.9903000000118709,1.0,0.9903000000118709,0.0,1.0
sert_test_3,example_data_psychopy_sert_3.csv,1,2025-12-22_11h34.06.770,sert_artemis_2025.2.3,2025.2.3,59.17159763,Win32,objects,color,2.0,['2'],[1.0650000000000546],11.0,images/Lethal_Noose_1_Orange_Oval.png,images/Safe_Buoy_Blue_Oval.png,images/Safe_LifeVest_Orange_Rect.png,466.6367,468.687,468.6871,469.2366,0.55,0.15,1.9,Lethal,Noose_1,Orange,Oval,Safe,Buoy,Blue,Oval,Safe,LifeVest,Orange,Rect,2.0,1,repeat,1.0,2.0,1.0650000000000546,2.0,1.0650000000000546,1.0,1.0650000000000546,0.0,1.0
sert_test_3,example_data_psychopy_sert_3.csv,1,2025-12-22_11h34.06.770,sert_artemis_2025.2.3,2025.2.3,59.17159763,Win32,objects,color,2.0,['2'],[1.0864000000357805],12.0,images/Inert_Hairbrush_Orange_Rhom.png,images/Lethal_Razor_Blue_Rhom.png,images/Lethal_Knife_Orange_Rect.png,469.2372,471.2862,471.2862,471.7366,0.45,0.15,1.9,Inert,Hairbrush,Orange,Rhom,Lethal,Razor,Blue,Rhom,Lethal,Knife,Orange,Rect,2.0,1,repeat,1.0,2.0,1.0864000000357805,2.0,1.0864000000357805,1.0,1.0864000000357805,0.0,1.0
sert_test_3,example_data_psychopy_sert_3.csv,1,2025-12-22_11h34.06.770,sert_artemis_2025.2.3,2025.2.3,59.17159763,Win32,objects,color,2.0,['2'],[1.1491999999880704],13.0,images/Safe_LifeVest_Orange_Rect.png,images/Safe_Extinguisher_Blue_Oval.png,images/Lethal_Noose_1_Orange_Oval.png,471.7375,473.7864,473.7866,474.1369,0.35,0.15,1.9,Safe,LifeVest,Orange,Rect,Safe,Extinguisher,Blue,Oval,Lethal,Noose_1,Orange,Oval,2.0,1,repeat,1.0,2.0,1.1491999999880704,2.0,1.1491999999880704,1.0,1.1491999999880704,0.0,1.0
sert_test_3,example_data_psychopy_sert_3.csv,1,2025-12-22_11h34.06.770,sert_artemis_2025.2.3,2025.2.3,59.17159763,Win32,objects,color,1.0,['1'],[1.1498000000119077],14.0,images/Lethal_Poison_Blue_Oval.png,images/Lethal_Gun_1_Orange_Rhom.png,images/Inert_Strawberry_Orange_Oval.png,474.1378,476.1868,476.1868,476.7365,0.55,0.15,1.9,Lethal,Poison,Blue,Oval,Lethal,Gun_1,Orange,Rhom,Inert,Strawberry,Orange,Oval,2.0,1,repeat,1.0,1.0,1.1498000000119077,1.0,1.1498000000119077,1.0,1.1498000000119077,0.0,1.0
sert_test_3,example_data_psychopy_sert_3.csv,1,2025-12-22_11h34.06.770,sert_artemis_2025.2.3,2025.2.3,59.17159763,Win32,objects,color,2.0,['1'],[1.0268000000119173],15.0,images/Lethal_Knife_Blue_Rect.png,images/Lethal_Pills_Orange_Rhom.png,images/Safe_Buoy_Blue_Rhom.png,476.7376,478.7865,478.7866,479.1366,0.35,0.15,1.9,Lethal,Knife,Blue,Rect,Lethal,Pills,Orange,Rhom,Safe,Buoy,Blue,Rhom,2.0,1,repeat,1.0,1.0,1.0268000000119173,1.0,1.0268000000119173,0.0,,0.0,0.0
sert_test_3,example_data_psychopy_sert_3.csv,1,2025-12-22_11h34.06.770,sert_artemis_2025.2.3,2025.2.3,59.17159763,Win32,objects,color,3.0,['3'],[1.2990999999642554],16.0,images/Inert_Orange_Orange_Rect.png,images/Lethal_Knife_Orange_Oval.png,images/Inert_Book_Blue_Oval.png,479.1378,481.1864,481.1866,481.7366,0.55,0.15,1.9,Inert,Orange,Orange,Rect,Lethal,Knife,Orange,Oval,Inert,Book,Blue,Oval,2.0,1,repeat,1.0,3.0,1.2990999999642554,3.0,1.2990999999642554,1.0,1.2990999999642554,0.0,1.0
sert_test_3,example_data_psychopy_sert_3.csv,1,2025-12-22_11h34.06.770,sert_artemis_2025.2.3,2025.2.3,59.17159763,Win32,objects,color,1.0,['1'],[0.8904000000357541],17.0,images/Lethal_Pills_Blue_Rhom.png,images/Inert_Book_Orange_Rhom.png,images/Lethal_Gun_1_Orange_Rect.png,481.7374,483.7869,483.787,484.2366,0.45,0.15,1.9,Lethal,Pills,Blue,Rhom,Inert,Book,Orange,Rhom,Lethal,Gun_1,Orange,Rect,2.0,1,repeat,1.0,1.0,0.8904000000357541,1.0,0.8904000000357541,1.0,0.8904000000357541,0.0,1.0
sert_test_3,example_data_psychopy_sert_3.csv,1,2025-12-22_11h34.06.770,sert_artemis_2025.2.3,2025.2.3,59.17159763,Win32,objects,color,2.0,['2'],[1.03240000003575],18.0,images/Lethal_Noose_1_Blue_Oval.png,images/Safe_LifeVest_Orange_Oval.png,images/Safe_Goggles_Blue_Rect.png,484.2377,486.2866,486.2867,486.6364,0.35,0.15,1.9,Lethal,Noose_1,Blue,Oval,Safe,LifeVest,Orange,Oval,Safe,Goggles,Blue,Rect,2.0,1,repeat,1.0,2.0,1.03240000003575,2.0,1.03240000003575,1.0,1.03240000003575,0.0,1.0
sert_test_3,example_data_psychopy_sert_3.csv,1,2025-12-22_11h34.06.770,sert_artemis_2025.2.3,2025.2.3,59.17159763,Win32,objects,color,3.0,['3'],[1.2864999999999895],19.0,images/Safe_Buoy_Blue_Rect.png,images/Lethal_Razor_Blue_Oval.png,images/Safe_SeatBelt_Orange_Oval.png,486.6375,488.6865,488.6866,489.1367,0.45,0.15,1.9,Safe,Buoy,Blue,Rect,Lethal,Razor,Blue,Oval,Safe,SeatBelt,Orange,Oval,2.0,1,repeat,1.0,3.0,1.2864999999999895,3.0,1.2864999999999895,1.0,1.2864999999999895,0.0,1.0
sert_test_3,example_data_psychopy_sert_3.csv,1,2025-12-22_11h34.06.770,sert_artemis_2025.2.3,2025.2.3,59.17159763,Win32,objects,shape,3.0,"['2', '3']","[1.311599999964244, 1.7115999999642781]",20.0,images/Lethal_Gun_1_Blue_Rect.png,images/Safe_BearHug_Orange_Rect.png,images/Safe_LifeVest_Blue_Rhom.png,489.1385,491.1866,491.1867,491.7357,0.55,0.15,1.9,Lethal,Gun_1,Blue,Rect,Safe,BearHug,Orange,Rect,Safe,LifeVest,Blue,Rhom,3.0,3,switch,2.0,2.0,1.311599999964244,3.0,1.7115999999642781,1.0,1.7115999999642781,1.0,1.0
sert_test_3,example_data_psychopy_sert_3.csv,1,2025-12-22_11h34.06.770,sert_artemis_2025.2.3,2025.2.3,59.17159763,Win32,objects,color,3.0,['3'],[1.1838000000119564],21.0,images/Lethal_Poison_Blue_Oval.png,images/Inert_Book_Blue_Rhom.png,images/Inert_Strawberry_Orange_Oval.png,491.7366,493.7866,493.7867,494.1359,0.35,0.15,1.9,Lethal,Poison,Blue,Oval,Inert,Book,Blue,Rhom,Inert,Strawberry,Orange,Oval,3.0,3,switch,1.0,3.0,1.1838000000119564,3.0,1.1838000000119564,1.0,1.1838000000119564,0.0,1.0
sert_test_3,example_data_psychopy_sert_3.csv,1,2025-12-22_11h34.06.770,sert_artemis_2025.2.3,2025.2.3,59.17159763,Win32,objects,color,3.0,['3'],[1.1680000000000064],22.0,images/Lethal_Noose_1_Blue_Oval.png,images/Safe_Buoy_Blue_Rhom.png,images/Safe_Goggles_Orange_Oval.png,494.1366,496.1872,496.1873,496.5367,0.35,0.15,1.9,Lethal,Noose_1,Blue,Oval,Safe,Buoy,Blue,Rhom,Safe,Goggles,Orange,Oval,3.0,3,switch,1.0,3.0,1.1680000000000064,3.0,1.1680000000000064,1.0,1.1680000000000064,0.0,1.0
sert_test_3,example_data_psychopy_sert_3.csv,1,2025-12-22_11h34.06.770,sert_artemis_2025.2.3,2025.2.3,59.17159763,Win32,objects,lethal,2.0,"['3', '2']","[1.6119999999999663, 1.879300000011881]",23.0,images/Safe_Buoy_Orange_Oval.png,images/Lethal_Razor_Blue_Oval.png,images/Safe_Extinguisher_Blue_Rhom.png,496.539,498.5858,498.5858,499.1369,0.55,0.15,1.9,Safe,Buoy,Orange,Oval,Lethal,Razor,Blue,Oval,Safe,Extinguisher,Blue,Rhom,3.0,3,switch,2.0,3.0,1.6119999999999663,2.0,1.879300000011881,1.0,1.879300000011881,1.0,1.0
sert_test_3,example_data_psychopy_sert_3.csv,1,2025-12-22_11h34.06.770,sert_artemis_2025.2.3,2025.2.3,59.17159763,Win32,objects,color,3.0,['3'],[1.5355000000000132],24.0,images/Lethal_Knife_Orange_Rect.png,images/Inert_Orange_Orange_Rhom.png,images/Inert_Camera_Blue_Rect.png,499.1388,501.1866,501.1867,501.7366,0.55,0.15,1.9,Lethal,Knife,Orange,Rect,Inert,Orange,Orange,Rhom,Inert,Camera,Blue,Rect,3.0,3,switch,1.0,3.0,1.5355000000000132,3.0,1.5355000000000132,1.0,1.5355000000000132,0.0,1.0
sert_test_3,example_data_psychopy_sert_3.csv,1,2025-12-22_11h34.06.770,sert_artemis_2025.2.3,2025.2.3,59.17159763,Win32,objects,color,2.0,['2'],[1.1489000000357237],25.0,images/Lethal_Gun_1_Blue_Rect.png,images/Safe_SeatBelt_Orange_Rect.png,images/Safe_Extinguisher_Blue_Rhom.png,501.7375,503.7865,503.7865,504.3364,0.55,0.15,1.9,Lethal,Gun_1,Blue,Rect,Safe,SeatBelt,Orange,Rect,Safe,Extinguisher,Blue,Rhom,3.0,3,switch,1.0,2.0,1.1489000000357237,2.0,1.1489000000357237,1.0,1.1489000000357237,0.0,1.0
sert_test_3,example_data_psychopy_sert_3.csv,1,2025-12-22_11h34.06.770,sert_artemis_2025.2.3,2025.2.3,59.17159763,Win32,objects,lethal,1.0,['1'],[1.28009999996425],26.0,images/Inert_Hat_Orange_Oval.png,images/Lethal_Razor_Orange_Rect.png,images/Lethal_Knife_Blue_Oval.png,504.338,506.3862,506.3863,506.7366,0.35,0.15,1.9,Inert,Hat,Orange,Oval,Lethal,Razor,Orange,Rect,Lethal,Knife,Blue,Oval,3.0,3,switch,1.0,1.0,1.28009999996425,1.0,1.28009999996425,1.0,1.28009999996425,0.0,1.0
sert_test_3,example_data_psychopy_sert_3.csv,1,2025-12-22_11h34.06.770,sert_artemis_2025.2.3,2025.2.3,59.17159763,Win32,objects,lethal,3.0,['2'],[1.749200000047722],27.0,images/Inert_Book_Blue_Rect.png,images/Inert_Hairbrush_Orange_Rhom.png,images/Lethal_Noose_1_Orange_Rect.png,506.7377,508.7867,508.7867,509.1368,0.35,0.15,1.9,Inert,Book,Blue,Rect,Inert,Hairbrush,Orange,Rhom,Lethal,Noose_1,Orange,Rect,3.0,3,switch,1.0,2.0,1.749200000047722,2.0,1.749200000047722,0.0,,0.0,0.0
sert_test_3,example_data_psychopy_sert_3.csv,1,2025-12-22_11h34.06.770,sert_artemis_2025.2.3,2025.2.3,59.17159763,Win32,objects,shape,1.0,['1'],[1.5193000000118673],28.0,images/Inert_Hairbrush_Blue_Rhom.png,images/Lethal_Gun_1_Blue_Oval.png,images/Inert_Hat_Orange_Oval.png,509.1387,511.1867,511.1867,511.7364,0.55,0.15,1.9,Inert,Hairbrush,Blue,Rhom,Lethal,Gun_1,Blue,Oval,Inert,Hat,Orange,Oval,3.0,3,switch,1.0,1.0,1.5193000000118673,1.0,1.5193000000118673,1.0,1.5193000000118673,0.0,1.0
sert_test_3,example_data_psychopy_sert_3.csv,1,2025-12-22_11h34.06.770,sert_artemis_2025.2.3,2025.2.3,59.17159763,Win32,objects,shape,3.0,['3'],[1.566500000000019],29.0,images/Lethal_Pills_Blue_Rect.png,images/Inert_Hairbrush_Orange_Rect.png,images/Inert_Orange_Blue_Rhom.png,511.7374,513.7863,513.7863,514.1364,0.35,0.15,1.9,Lethal,Pills,Blue,Rect,Inert,Hairbrush,Orange,Rect,Inert,Orange,Blue,Rhom,3.0,3,switch,1.0,3.0,1.566500000000019,3.0,1.566500000000019,1.0,1.566500000000019,0.0,1.0
sert_test_3,example_data_psychopy_sert_3.csv,1,2025-12-22_11h34.06.770,sert_artemis_2025.2.3,2025.2.3,59.17159763,Win32,objects,lethal,2.0,['2'],[1.335599999964188],30.0,images/Lethal_Razor_Blue_Rect.png,images/Safe_BearHug_Blue_Rhom.png,images/Lethal_Gun_1_Orange_Rhom.png,514.1384,516.1866,516.1867,516.7367,0.55,0.15,1.9,Lethal,Razor,Blue,Rect,Safe,BearHug,Blue,Rhom,Lethal,Gun_1,Orange,Rhom,4.0,1,repeat,1.0,2.0,1.335599999964188,2.0,1.335599999964188,1.0,1.335599999964188,0.0,1.0
sert_test_3,example_data_psychopy_sert_3.csv,1,2025-12-22_11h34.06.770,sert_artemis_2025.2.3,2025.2.3,59.17159763,Win32,objects,lethal,2.0,['2'],[1.4900999999641726],31.0,images/Lethal_Poison_Blue_Oval.png,images/Safe_LifeVest_Orange_Oval.png,images/Lethal_Razor_Orange_Rect.png,516.738,518.7869,518.7869,519.3367,0.55,0.15,1.9,Lethal,Poison,Blue,Oval,Safe,LifeVest,Orange,Oval,Lethal,Razor,Orange,Rect,4.0,1,repeat,1.0,2.0,1.4900999999641726,2.0,1.4900999999641726,1.0,1.4900999999641726,0.0,1.0
sert_test_3,example_data_psychopy_sert_3.csv,1,2025-12-22_11h34.06.770,sert_artemis_2025.2.3,2025.2.3,59.17159763,Win32,objects,lethal,2.0,['2'],[1.5650999999642181],32.0,images/Lethal_Gun_1_Orange_Rhom.png,images/Safe_Extinguisher_Blue_Rhom.png,images/Lethal_Knife_Blue_Rect.png,519.338,521.3868,521.3868,521.7356,0.35,0.15,1.9,Lethal,Gun_1,Orange,Rhom,Safe,Extinguisher,Blue,Rhom,Lethal,Knife,Blue,Rect,4.0,1,repeat,1.0,2.0,1.5650999999642181,2.0,1.5650999999642181,1.0,1.5650999999642181,0.0,1.0
sert_test_3,example_data_psychopy_sert_3.csv,1,2025-12-22_11h34.06.770,sert_artemis_2025.2.3,2025.2.3,59.17159763,Win32,objects,lethal,1.0,['1'],[1.4536000000239255],33.0,images/Safe_LifeVest_Blue_Oval.png,images/Lethal_Pills_Orange_Oval.png,images/Lethal_Gun_1_Blue_Rect.png,521.7359,523.7858,523.7858,524.3359,0.55,0.15,1.9,Safe,LifeVest,Blue,Oval,Lethal,Pills,Orange,Oval,Lethal,Gun_1,Blue,Rect,4.0,1,repeat,1.0,1.0,1.4536000000239255,1.0,1.4536000000239255,1.0,1.4536000000239255,0.0,1.0
sert_test_3,example_data_psychopy_sert_3.csv,1,2025-12-22_11h34.06.770,sert_artemis_2025.2.3,2025.2.3,59.17159763,Win32,objects,lethal,1.0,['1'],[1.46060000002376],34.0,images/Safe_BearHug_Orange_Rect.png,images/Lethal_Noose_1_Orange_Oval.png,images/Lethal_Poison_Blue_Rect.png,524.3363,526.3867,526.3868,526.8367,0.45,0.15,1.9,Safe,BearHug,Orange,Rect,Lethal,Noose_1,Orange,Oval,Lethal,Poison,Blue,Rect,4.0,1,repeat,1.0,1.0,1.46060000002376,1.0,1.46060000002376,1.0,1.46060000002376,0.0,1.0
sert_test_3,example_data_psychopy_sert_3.csv,1,2025-12-22_11h34.06.770,sert_artemis_2025.2.3,2025.2.3,59.17159763,Win32,objects,lethal,3.0,['3'],[1.3746999999880245],35.0,images/Lethal_Pills_Blue_Rect.png,images/Lethal_Knife_Orange_Rhom.png,images/Safe_Goggles_Blue_Rhom.png,526.8379,528.8865,528.8866,529.237,0.35,0.15,1.9,Lethal,Pills,Blue,Rect,Lethal,Knife,Orange,Rhom,Safe,Goggles,Blue,Rhom,4.0,1,repeat,1.0,3.0,1.3746999999880245,3.0,1.3746999999880245,1.0,1.3746999999880245,0.0,1.0
sert_test_3,example_data_psychopy_sert_3.csv,1,2025-12-22_11h34.06.770,sert_artemis_2025.2.3,2025.2.3,59.17159763,Win32,objects,lethal,1.0,['1'],[1.4207000000477592],36.0,images/Safe_BearHug_Blue_Oval.png,images/Lethal_Poison_Blue_Rect.png,images/Lethal_Noose_1_Orange_Oval.png,529.2385,531.2864,531.2865,531.7366,0.45,0.15,1.9,Safe,BearHug,Blue,Oval,Lethal,Poison,Blue,Rect,Lethal,Noose_1,Orange,Oval,4.0,1,repeat,1.0,1.0,1.4207000000477592,1.0,1.4207000000477592,1.0,1.4207000000477592,0.0,1.0
sert_test_3,example_data_psychopy_sert_3.csv,1,2025-12-22_11h34.06.770,sert_artemis_2025.2.3,2025.2.3,59.17159763,Win32,objects,lethal,1.0,['1'],[1.306400000035751],37.0,images/Safe_LifeVest_Orange_Rect.png,images/Lethal_Knife_Orange_Oval.png,images/Lethal_Pills_Blue_Rect.png,531.7375,533.7867,533.7867,534.1365,0.35,0.15,1.9,Safe,LifeVest,Orange,Rect,Lethal,Knife,Orange,Oval,Lethal,Pills,Blue,Rect,4.0,1,repeat,1.0,1.0,1.306400000035751,1.0,1.306400000035751,1.0,1.306400000035751,0.0,1.0
sert_test_3,example_data_psychopy_sert_3.csv,1,2025-12-22_11h34.06.770,sert_artemis_2025.2.3,2025.2.3,59.17159763,Win32,objects,lethal,1.0,['1'],[1.5159000000357992],38.0,images/Safe_Extinguisher_Orange_Rhom.png,images/Lethal_Gun_1_Orange_Rect.png,images/Lethal_Razor_Blue_Rhom.png,534.1376,536.1868,536.1868,536.5368,0.35,0.15,1.9,Safe,Extinguisher,Orange,Rhom,Lethal,Gun_1,Orange,Rect,Lethal,Razor,Blue,Rhom,4.0,1,repeat,1.0,1.0,1.5159000000357992,1.0,1.5159000000357992,1.0,1.5159000000357992,0.0,1.0
sert_test_3,example_data_psychopy_sert_3.csv,1,2025-12-22_11h34.06.770,sert_artemis_2025.2.3,2025.2.3,59.17159763,Win32,objects,lethal,2.0,['2'],[1.4501999999880582],39.0,images/Lethal_Poison_Blue_Oval.png,images/Safe_SeatBelt_Orange_Oval.png,images/Lethal_Knife_Orange_Rect.png,536.5379,538.5868,538.5869,538.9365,0.35,0.15,1.9,Lethal,Poison,Blue,Oval,Safe,SeatBelt,Orange,Oval,Lethal,Knife,Orange,Rect,4.0,1,repeat,1.0,2.0,1.4501999999880582,2.0,1.4501999999880582,1.0,1.4501999999880582,0.0,1.0
sert_test_3,example_data_psychopy_sert_3.csv,1,2025-12-22_11h34.06.770,sert_artemis_2025.2.3,2025.2.3,59.17159763,Win32,objects,shape,3.0,['3'],[1.7513000000118382],40.0,images/Inert_Orange_Orange_Rect.png,images/Lethal_Poison_Blue_Rect.png,images/Inert_Hairbrush_Blue_Oval.png,538.9384,540.9866,540.9866,541.4357,0.45,0.15,1.9,Inert,Orange,Orange,Rect,Lethal,Poison,Blue,Rect,Inert,Hairbrush,Blue,Oval,5.0,3,switch,1.0,3.0,1.7513000000118382,3.0,1.7513000000118382,1.0,1.7513000000118382,0.0,1.0
sert_test_3,example_data_psychopy_sert_3.csv,1,2025-12-22_11h34.06.770,sert_artemis_2025.2.3,2025.2.3,59.17159763,Win32,objects,shape,3.0,['3'],[1.785900000035781],41.0,images/Lethal_Poison_Blue_Rhom.png,images/Safe_Extinguisher_Orange_Rhom.png,images/Lethal_Knife_Orange_Rect.png,541.436,543.4868,543.4868,544.0355,0.55,0.15,1.9,Lethal,Poison,Blue,Rhom,Safe,Extinguisher,Orange,Rhom,Lethal,Knife,Orange,Rect,5.0,3,switch,1.0,3.0,1.785900000035781,3.0,1.785900000035781,1.0,1.785900000035781,0.0,1.0
sert_test_3,example_data_psychopy_sert_3.csv,1,2025-12-22_11h34.06.770,sert_artemis_2025.2.3,2025.2.3,59.17159763,Win32,objects,lethal,2.0,['2'],[1.6676999999880309],42.0,images/Inert_Book_Blue_Oval.png,images/Lethal_Gun_1_Orange_Oval.png,images/Inert_Hat_Orange_Rhom.png,544.0362,546.0866,546.0867,546.6366,0.55,0.15,1.9,Inert,Book,Blue,Oval,Lethal,Gun_1,Orange,Oval,Inert,Hat,Orange,Rhom,5.0,3,switch,1.0,2.0,1.6676999999880309,2.0,1.6676999999880309,1.0,1.6676999999880309,0.0,1.0
sert_test_3,example_data_psychopy_sert_3.csv,1,2025-12-22_11h34.06.770,sert_artemis_2025.2.3,2025.2.3,59.17159763,Win32,objects,color,1.0,['1'],[1.5080000000000382],43.0,images/Lethal_Gun_1_Orange_Rect.png,images/Lethal_Poison_Blue_Oval.png,images/Inert_Camera_Blue_Rect.png,546.6385,548.6855,548.6856,549.0365,0.35,0.15,1.9,Lethal,Gun_1,Orange,Rect,Lethal,Poison,Blue,Oval,Inert,Camera,Blue,Rect,5.0,3,switch,1.0,1.0,1.5080000000000382,1.0,1.5080000000000382,1.0,1.5080000000000382,0.0,1.0
sert_test_3,example_data_psychopy_sert_3.csv,1,2025-12-22_11h34.06.770,sert_artemis_2025.2.3,2025.2.3,59.17159763,Win32,objects,lethal,1.0,['1'],[1.796800000011899],44.0,images/Inert_Book_Orange_Rect.png,images/Lethal_Noose_1_Blue_Rect.png,images/Lethal_Razor_Orange_Rhom.png,549.0384,551.0865,551.0866,551.4365,0.35,0.15,1.9,Inert,Book,Orange,Rect,Lethal,Noose_1,Blue,Rect,Lethal,Razor,Orange,Rhom,5.0,3,switch,1.0,1.0,1.796800000011899,1.0,1.796800000011899,1.0,1.796800000011899,0.0,1.0
sert_test_3,example_data_psychopy_sert_3.csv,1,2025-12-22_11h34.06.770,sert_artemis_2025.2.3,2025.2.3,59.17159763,Win32,objects,shape,3.0,['3'],[1.315499999999929],45.0,images/Inert_Hairbrush_Blue_Rhom.png,images/Lethal_Razor_Orange_Rhom.png,images/Inert_Strawberry_Orange_Rect.png,551.4386,553.4861,553.4862,554.0358,0.55,0.15,1.9,Inert,Hairbrush,Blue,Rhom,Lethal,Razor,Orange,Rhom,Inert,Strawberry,Orange,Rect,5.0,3,switch,1.0,3.0,1.315499999999929,3.0,1.315499999999929,1.0,1.315499999999929,0.0,1.0
sert_test_3,example_data_psychopy_sert_3.csv,1,2025-12-22_11h34.06.770,sert_artemis_2025.2.3,2025.2.3,59.17159763,Win32,objects,lethal,1.0,,,46.0,images/Lethal_Noose_1_Orange_Oval.png,images/Inert_Camera_Orange_Rect.png,images/Inert_Book_Blue_Oval.png,554.0366,556.0863,556.0864,556.5364,0.45,0.15,1.9,Lethal,Noose_1,Orange,Oval,Inert,Camera,Orange,Rect,Inert,Book,Blue,Oval,5.0,3,switch,0.0,,,,,0.0,,0.0,0.0
sert_test_3,example_data_psychopy_sert_3.csv,1,2025-12-22_11h34.06.770,sert_artemis_2025.2.3,2025.2.3,59.17159763,Win32,objects,color,3.0,['3'],[1.2079000000356928],47.0,images/Safe_LifeVest_Orange_Rhom.png,images/Lethal_Pills_Orange_Rect.png,images/Safe_SeatBelt_Blue_Rect.png,556.5383,558.5867,558.5868,559.1366,0.55,0.15,1.9,Safe,LifeVest,Orange,Rhom,Lethal,Pills,Orange,Rect,Safe,SeatBelt,Blue,Rect,5.0,3,switch,1.0,3.0,1.2079000000356928,3.0,1.2079000000356928,1.0,1.2079000000356928,0.0,1.0
sert_test_3,example_data_psychopy_sert_3.csv,1,2025-12-22_11h34.06.770,sert_artemis_2025.2.3,2025.2.3,59.17159763,Win32,objects,lethal,3.0,['3'],[1.2151000000237673],48.0,images/Lethal_Gun_1_Blue_Oval.png,images/Lethal_Poison_Orange_Rhom.png,images/Inert_Camera_Blue_Rhom.png,559.1383,561.1863,561.1863,561.7365,0.55,0.15,1.9,Lethal,Gun_1,Blue,Oval,Lethal,Poison,Orange,Rhom,Inert,Camera,Blue,Rhom,5.0,3,switch,1.0,3.0,1.2151000000237673,3.0,1.2151000000237673,1.0,1.2151000000237673,0.0,1.0
sert_test_3,example_data_psychopy_sert_3.csv,1,2025-12-22_11h34.06.770,sert_artemis_2025.2.3,2025.2.3,59.17159763,Win32,objects,shape,3.0,['3'],[1.5793000000119264],49.0,images/Lethal_Pills_Blue_Rhom.png,images/Inert_Hat_Orange_Rhom.png,images/Inert_Strawberry_Blue_Rect.png,561.7383,563.7865,563.7865,564.1365,0.35,0.15,1.9,Lethal,Pills,Blue,Rhom,Inert,Hat,Orange,Rhom,Inert,Strawberry,Blue,Rect,5.0,3,switch,1.0,3.0,1.5793000000119264,3.0,1.5793000000119264,1.0,1.5793000000119264,0.0,1.0
sert_test_3,example_data_psychopy_sert_3.csv,1,2025-12-22_11h34.06.770,sert_artemis_2025.2.3,2025.2.3,59.17159763,Win32,objects,color,2.0,['2'],[1.7676000000237764],50.0,images/Lethal_Noose_1_Orange_Rect.png,images/Safe_Goggles_Blue_Rect.png,images/Safe_Buoy_Orange_Oval.png,564.1384,566.1868,566.1869,566.5365,0.35,0.15,1.9,Lethal,Noose_1,Orange,Rect,Safe,Goggles,Blue,Rect,Safe,Buoy,Orange,Oval,6.0,1,repeat,1.0,2.0,1.7676000000237764,2.0,1.7676000000237764,1.0,1.7676000000237764,0.0,1.0
sert_test_3,example_data_psychopy_sert_3.csv,1,2025-12-22_11h34.06.770,sert_artemis_2025.2.3,2025.2.3,59.17159763,Win32,objects,color,3.0,['3'],[1.243100000023901],51.0,images/Lethal_Knife_Blue_Rect.png,images/Inert_Camera_Blue_Rhom.png,images/Lethal_Noose_1_Orange_Rhom.png,566.538,568.5867,568.5867,569.0366,0.45,0.15,1.9,Lethal,Knife,Blue,Rect,Inert,Camera,Blue,Rhom,Lethal,Noose_1,Orange,Rhom,6.0,1,repeat,1.0,3.0,1.243100000023901,3.0,1.243100000023901,1.0,1.243100000023901,0.0,1.0
sert_test_3,example_data_psychopy_sert_3.csv,1,2025-12-22_11h34.06.770,sert_artemis_2025.2.3,2025.2.3,59.17159763,Win32,objects,color,3.0,['3'],[1.48059999996417],52.0,images/Safe_LifeVest_Orange_Oval.png,images/Lethal_Razor_Orange_Rect.png,images/Safe_Extinguisher_Blue_Rect.png,569.0376,571.0866,571.0867,571.5364,0.45,0.15,1.9,Safe,LifeVest,Orange,Oval,Lethal,Razor,Orange,Rect,Safe,Extinguisher,Blue,Rect,6.0,1,repeat,1.0,3.0,1.48059999996417,3.0,1.48059999996417,1.0,1.48059999996417,0.0,1.0
sert_test_3,example_data_psychopy_sert_3.csv,1,2025-12-22_11h34.06.770,sert_artemis_2025.2.3,2025.2.3,59.17159763,Win32,objects,color,3.0,['3'],[1.5543999999762264],53.0,images/Safe_Buoy_Blue_Rhom.png,images/Lethal_Pills_Blue_Rect.png,images/Safe_BearHug_Orange_Rect.png,571.5373,573.5866,573.5867,574.1366,0.55,0.15,1.9,Safe,Buoy,Blue,Rhom,Lethal,Pills,Blue,Rect,Safe,BearHug,Orange,Rect,6.0,1,repeat,1.0,3.0,1.5543999999762264,3.0,1.5543999999762264,1.0,1.5543999999762264,0.0,1.0
sert_test_3,example_data_psychopy_sert_3.csv,1,2025-12-22_11h34.06.770,sert_artemis_2025.2.3,2025.2.3,59.17159763,Win32,objects,color,2.0,['2'],[1.2419999999999618],54.0,images/Safe_LifeVest_Orange_Oval.png,images/Safe_BearHug_Blue_Rhom.png,images/Lethal_Gun_1_Orange_Rhom.png,574.1376,576.1862,576.1863,576.7365,0.55,0.15,1.9,Safe,LifeVest,Orange,Oval,Safe,BearHug,Blue,Rhom,Lethal,Gun_1,Orange,Rhom,6.0,1,repeat,1.0,2.0,1.2419999999999618,2.0,1.2419999999999618,1.0,1.2419999999999618,0.0,1.0
sert_test_3,example_data_psychopy_sert_3.csv,1,2025-12-22_11h34.06.770,sert_artemis_2025.2.3,2025.2.3,59.17159763,Win32,objects,color,2.0,['2'],[1.18649999999991],55.0,images/Lethal_Knife_Blue_Rect.png,images/Safe_Extinguisher_Orange_Rect.png,images/Safe_LifeVest_Blue_Rhom.png,576.7374,578.7867,578.7867,579.2364,0.45,0.15,1.9,Lethal,Knife,Blue,Rect,Safe,Extinguisher,Orange,Rect,Safe,LifeVest,Blue,Rhom,6.0,1,repeat,1.0,2.0,1.18649999999991,2.0,1.18649999999991,1.0,1.18649999999991,0.0,1.0
sert_test_3,example_data_psychopy_sert_3.csv,1,2025-12-22_11h34.06.770,sert_artemis_2025.2.3,2025.2.3,59.17159763,Win32,objects,color,2.0,['2'],[1.3103999999761982],56.0,images/Lethal_Razor_Blue_Rect.png,images/Safe_Buoy_Orange_Rect.png,images/Safe_SeatBelt_Blue_Rhom.png,579.2377,581.2864,581.2865,581.8353,0.55,0.15,1.9,Lethal,Razor,Blue,Rect,Safe,Buoy,Orange,Rect,Safe,SeatBelt,Blue,Rhom,6.0,1,repeat,1.0,2.0,1.3103999999761982,2.0,1.3103999999761982,1.0,1.3103999999761982,0.0,1.0
sert_test_3,example_data_psychopy_sert_3.csv,1,2025-12-22_11h34.06.770,sert_artemis_2025.2.3,2025.2.3,59.17159763,Win32,objects,color,3.0,['3'],[1.435800000011909],57.0,images/Lethal_Pills_Orange_Rhom.png,images/Inert_Strawberry_Orange_Oval.png,images/Inert_Book_Blue_Rhom.png,581.8357,583.8867,583.8867,584.2354,0.35,0.15,1.9,Lethal,Pills,Orange,Rhom,Inert,Strawberry,Orange,Oval,Inert,Book,Blue,Rhom,6.0,1,repeat,1.0,3.0,1.435800000011909,3.0,1.435800000011909,1.0,1.435800000011909,0.0,1.0
sert_test_3,example_data_psychopy_sert_3.csv,1,2025-12-22_11h34.06.770,sert_artemis_2025.2.3,2025.2.3,59.17159763,Win32,objects,color,3.0,['3'],[1.5615000000000236],58.0,images/Safe_SeatBelt_Orange_Oval.png,images/Lethal_Gun_1_Orange_Rhom.png,images/Safe_Buoy_Blue_Rhom.png,584.2359,586.2865,586.2865,586.7365,0.45,0.15,1.9,Safe,SeatBelt,Orange,Oval,Lethal,Gun_1,Orange,Rhom,Safe,Buoy,Blue,Rhom,6.0,1,repeat,1.0,3.0,1.5615000000000236,3.0,1.5615000000000236,1.0,1.5615000000000236,0.0,1.0
sert_test_3,example_data_psychopy_sert_3.csv,1,2025-12-22_11h34.06.770,sert_artemis_2025.2.3,2025.2.3,59.17159763,Win32,objects,color,3.0,"['2', '3']","[1.5693000000118218, 1.7819999999999254]",59.0,images/Inert_Book_Blue_Rhom.png,images/Lethal_Knife_Blue_Rect.png,images/Inert_Hairbrush_Orange_Rect.png,586.738,588.7864,588.7864,589.3365,0.55,0.15,1.9,Inert,Book,Blue,Rhom,Lethal,Knife,Blue,Rect,Inert,Hairbrush,Orange,Rect,6.0,1,repeat,2.0,2.0,1.5693000000118218,3.0,1.7819999999999254,1.0,1.7819999999999254,1.0,1.0
sert_test_3,example_data_psychopy_sert_3.csv,1,2025-12-22_11h34.06.770,sert_artemis_2025.2.3,2025.2.3,59.17159763,Win32,objects,shape,3.0,['3'],[1.718600000023912],60.0,images/Safe_LifeVest_Blue_Rhom.png,images/Lethal_Pills_Orange_Rhom.png,images/Safe_BearHug_Orange_Oval.png,589.3385,591.386,591.386,591.9367,0.55,0.15,1.9,Safe,LifeVest,Blue,Rhom,Lethal,Pills,Orange,Rhom,Safe,BearHug,Orange,Oval,7.0,3,switch,1.0,3.0,1.718600000023912,3.0,1.718600000023912,1.0,1.718600000023912,0.0,1.0
sert_test_3,example_data_psychopy_sert_3.csv,1,2025-12-22_11h34.06.770,sert_artemis_2025.2.3,2025.2.3,59.17159763,Win32,objects,shape,2.0,['2'],[1.4572999999522835],61.0,images/Safe_Extinguisher_Orange_Oval.png,images/Safe_LifeVest_Blue_Rect.png,images/Lethal_Knife_Blue_Oval.png,591.9377,593.9866,593.9867,594.5365,0.55,0.15,1.9,Safe,Extinguisher,Orange,Oval,Safe,LifeVest,Blue,Rect,Lethal,Knife,Blue,Oval,7.0,3,switch,1.0,2.0,1.4572999999522835,2.0,1.4572999999522835,1.0,1.4572999999522835,0.0,1.0
sert_test_3,example_data_psychopy_sert_3.csv,1,2025-12-22_11h34.06.770,sert_artemis_2025.2.3,2025.2.3,59.17159763,Win32,objects,shape,2.0,['1'],[1.1311000000239346],62.0,images/Inert_Hat_Blue_Rhom.png,images/Lethal_Noose_1_Blue_Rect.png,images/Lethal_Poison_Orange_Rhom.png,594.5378,596.5867,596.5867,597.0365,0.45,0.15,1.9,Inert,Hat,Blue,Rhom,Lethal,Noose_1,Blue,Rect,Lethal,Poison,Orange,Rhom,7.0,3,switch,1.0,1.0,1.1311000000239346,1.0,1.1311000000239346,0.0,,0.0,0.0
sert_test_3,example_data_psychopy_sert_3.csv,1,2025-12-22_11h34.06.770,sert_artemis_2025.2.3,2025.2.3,59.17159763,Win32,objects,color,2.0,['2'],[1.412699999988149],63.0,images/Lethal_Razor_Orange_Rect.png,images/Inert_Camera_Blue_Rect.png,images/Inert_Book_Orange_Oval.png,597.0384,599.0861,599.0862,599.5361,0.45,0.15,1.9,Lethal,Razor,Orange,Rect,Inert,Camera,Blue,Rect,Inert,Book,Orange,Oval,7.0,3,switch,1.0,2.0,1.412699999988149,2.0,1.412699999988149,1.0,1.412699999988149,0.0,1.0
sert_test_3,example_data_psychopy_sert_3.csv,1,2025-12-22_11h34.06.770,sert_artemis_2025.2.3,2025.2.3,59.17159763,Win32,objects,color,2.0,['2'],[1.043199999988019],64.0,images/Lethal_Noose_1_Orange_Rect.png,images/Safe_Buoy_Blue_Rect.png,images/Safe_Extinguisher_Orange_Oval.png,599.537,601.5865,601.5866,602.1363,0.55,0.15,1.9,Lethal,Noose_1,Orange,Rect,Safe,Buoy,Blue,Rect,Safe,Extinguisher,Orange,Oval,7.0,3,switch,1.0,2.0,1.043199999988019,2.0,1.043199999988019,1.0,1.043199999988019,0.0,1.0
sert_test_3,example_data_psychopy_sert_3.csv,1,2025-12-22_11h34.06.770,sert_artemis_2025.2.3,2025.2.3,59.17159763,Win32,objects,color,3.0,['3'],[1.09880000001192],65.0,images/Lethal_Pills_Blue_Oval.png,images/Safe_BearHug_Blue_Rhom.png,images/Safe_LifeVest_Orange_Oval.png,602.1374,604.1861,604.1861,604.5364,0.35,0.15,1.9,Lethal,Pills,Blue,Oval,Safe,BearHug,Blue,Rhom,Safe,LifeVest,Orange,Oval,7.0,3,switch,1.0,3.0,1.09880000001192,3.0,1.09880000001192,1.0,1.09880000001192,0.0,1.0
sert_test_3,example_data_psychopy_sert_3.csv,1,2025-12-22_11h34.06.770,sert_artemis_2025.2.3,2025.2.3,59.17159763,Win32,objects,lethal,1.0,['1'],[1.6870000000000118],66.0,images/Lethal_Pills_Blue_Rect.png,images/Inert_Camera_Orange_Rect.png,images/Inert_Orange_Blue_Oval.png,604.5386,606.586,606.586,607.136,0.55,0.15,1.9,Lethal,Pills,Blue,Rect,Inert,Camera,Orange,Rect,Inert,Orange,Blue,Oval,7.0,3,switch,1.0,1.0,1.6870000000000118,1.0,1.6870000000000118,1.0,1.6870000000000118,0.0,1.0
sert_test_3,example_data_psychopy_sert_3.csv,1,2025-12-22_11h34.06.770,sert_artemis_2025.2.3,2025.2.3,59.17159763,Win32,objects,color,3.0,"['3', '2']","[1.0896999999880563, 1.1701999999880854]",67.0,images/Safe_Buoy_Blue_Oval.png,images/Lethal_Gun_1_Blue_Rhom.png,images/Safe_Goggles_Orange_Rhom.png,607.1369,609.1865,609.1866,609.6362,0.45,0.15,1.9,Safe,Buoy,Blue,Oval,Lethal,Gun_1,Blue,Rhom,Safe,Goggles,Orange,Rhom,7.0,3,switch,2.0,3.0,1.0896999999880563,2.0,1.1701999999880854,1.0,1.0896999999880563,1.0,0.0
sert_test_3,example_data_psychopy_sert_3.csv,1,2025-12-22_11h34.06.770,sert_artemis_2025.2.3,2025.2.3,59.17159763,Win32,objects,color,3.0,['3'],[1.0704999999999245],68.0,images/Inert_Orange_Blue_Rect.png,images/Lethal_Noose_1_Blue_Oval.png,images/Lethal_Gun_1_Orange_Rect.png,609.6374,611.6864,611.6864,612.0362,0.35,0.15,1.9,Inert,Orange,Blue,Rect,Lethal,Noose_1,Blue,Oval,Lethal,Gun_1,Orange,Rect,7.0,3,switch,1.0,3.0,1.0704999999999245,3.0,1.0704999999999245,1.0,1.0704999999999245,0.0,1.0
sert_test_3,example_data_psychopy_sert_3.csv,1,2025-12-22_11h34.06.770,sert_artemis_2025.2.3,2025.2.3,59.17159763,Win32,objects,shape,3.0,['3'],[1.7558999999762364],69.0,images/Safe_Extinguisher_Blue_Rhom.png,images/Lethal_Razor_Orange_Rhom.png,images/Safe_Goggles_Orange_Rect.png,612.038,614.0858,614.0859,614.6355,0.55,0.15,1.9,Safe,Extinguisher,Blue,Rhom,Lethal,Razor,Orange,Rhom,Safe,Goggles,Orange,Rect,7.0,3,switch,1.0,3.0,1.7558999999762364,3.0,1.7558999999762364,1.0,1.7558999999762364,0.0,1.0
sert_test_3,example_data_psychopy_sert_3.csv,1,2025-12-22_11h34.06.770,sert_artemis_2025.2.3,2025.2.3,59.17159763,Win32,objects,shape,2.0,,,70.0,images/Lethal_Noose_1_Orange_Oval.png,images/Lethal_Pills_Orange_Rhom.png,images/Inert_Hairbrush_Blue_Oval.png,614.6358,616.6864,616.6865,617.1366,0.45,0.15,1.9,Lethal,Noose_1,Orange,Oval,Lethal,Pills,Orange,Rhom,Inert,Hairbrush,Blue,Oval,8.0,1,repeat,0.0,,,,,0.0,,0.0,0.0
sert_test_3,example_data_psychopy_sert_3.csv,1,2025-12-22_11h34.06.770,sert_artemis_2025.2.3,2025.2.3,59.17159763,Win32,objects,shape,1.0,['1'],[1.0901999999880445],71.0,images/Safe_Buoy_Orange_Oval.png,images/Safe_BearHug_Blue_Rhom.png,images/Lethal_Noose_1_Orange_Rhom.png,617.1375,619.1867,619.1868,619.7371,0.55,0.15,1.9,Safe,Buoy,Orange,Oval,Safe,BearHug,Blue,Rhom,Lethal,Noose_1,Orange,Rhom,8.0,1,repeat,1.0,1.0,1.0901999999880445,1.0,1.0901999999880445,1.0,1.0901999999880445,0.0,1.0
sert_test_3,example_data_psychopy_sert_3.csv,1,2025-12-22_11h34.06.770,sert_artemis_2025.2.3,2025.2.3,59.17159763,Win32,objects,shape,1.0,['1'],[1.2746000000238382],72.0,images/Safe_Goggles_Orange_Rhom.png,images/Lethal_Knife_Orange_Oval.png,images/Safe_Buoy_Blue_Oval.png,619.7382,621.7865,621.7865,622.1362,0.35,0.15,1.9,Safe,Goggles,Orange,Rhom,Lethal,Knife,Orange,Oval,Safe,Buoy,Blue,Oval,8.0,1,repeat,1.0,1.0,1.2746000000238382,1.0,1.2746000000238382,1.0,1.2746000000238382,0.0,1.0
sert_test_3,example_data_psychopy_sert_3.csv,1,2025-12-22_11h34.06.770,sert_artemis_2025.2.3,2025.2.3,59.17159763,Win32,objects,shape,2.0,['1'],[1.7708999999762227],73.0,images/Inert_Hat_Blue_Rect.png,images/Inert_Strawberry_Orange_Rhom.png,images/Lethal_Poison_Orange_Rect.png,622.1374,624.1865,624.1866,624.7364,0.55,0.15,1.9,Inert,Hat,Blue,Rect,Inert,Strawberry,Orange,Rhom,Lethal,Poison,Orange,Rect,8.0,1,repeat,1.0,1.0,1.7708999999762227,1.0,1.7708999999762227,0.0,,0.0,0.0
sert_test_3,example_data_psychopy_sert_3.csv,1,2025-12-22_11h34.06.770,sert_artemis_2025.2.3,2025.2.3,59.17159763,Win32,objects,shape,1.0,['1'],[1.5853999999761754],74.0,images/Safe_Goggles_Orange_Oval.png,images/Lethal_Poison_Orange_Rect.png,images/Safe_SeatBelt_Blue_Rect.png,624.7374,626.7866,626.7866,627.2361,0.45,0.15,1.9,Safe,Goggles,Orange,Oval,Lethal,Poison,Orange,Rect,Safe,SeatBelt,Blue,Rect,8.0,1,repeat,1.0,1.0,1.5853999999761754,1.0,1.5853999999761754,1.0,1.5853999999761754,0.0,1.0
sert_test_3,example_data_psychopy_sert_3.csv,1,2025-12-22_11h34.06.770,sert_artemis_2025.2.3,2025.2.3,59.17159763,Win32,objects,shape,3.0,['3'],[1.5186999999881436],75.0,images/Lethal_Knife_Blue_Oval.png,images/Inert_Hairbrush_Orange_Oval.png,images/Inert_Camera_Blue_Rhom.png,627.2371,629.2863,629.2863,629.6362,0.35,0.15,1.9,Lethal,Knife,Blue,Oval,Inert,Hairbrush,Orange,Oval,Inert,Camera,Blue,Rhom,8.0,1,repeat,1.0,3.0,1.5186999999881436,3.0,1.5186999999881436,1.0,1.5186999999881436,0.0,1.0
sert_test_3,example_data_psychopy_sert_3.csv,1,2025-12-22_11h34.06.770,sert_artemis_2025.2.3,2025.2.3,59.17159763,Win32,objects,shape,2.0,['2'],[1.4548000000119146],76.0,images/Inert_Strawberry_Orange_Oval.png,images/Lethal_Poison_Orange_Rect.png,images/Lethal_Razor_Blue_Oval.png,629.6371,631.6865,631.6866,632.2362,0.55,0.15,1.9,Inert,Strawberry,Orange,Oval,Lethal,Poison,Orange,Rect,Lethal,Razor,Blue,Oval,8.0,1,repeat,1.0,2.0,1.4548000000119146,2.0,1.4548000000119146,1.0,1.4548000000119146,0.0,1.0
sert_test_3,example_data_psychopy_sert_3.csv,1,2025-12-22_11h34.06.770,sert_artemis_2025.2.3,2025.2.3,59.17159763,Win32,objects,shape,3.0,['3'],[1.6538999999761472],77.0,images/Safe_Buoy_Orange_Rect.png,images/Lethal_Knife_Blue_Rect.png,images/Safe_Extinguisher_Blue_Oval.png,632.2372,634.2863,634.2864,634.6364,0.35,0.15,1.9,Safe,Buoy,Orange,Rect,Lethal,Knife,Blue,Rect,Safe,Extinguisher,Blue,Oval,8.0,1,repeat,1.0,3.0,1.6538999999761472,3.0,1.6538999999761472,1.0,1.6538999999761472,0.0,1.0
sert_test_3,example_data_psychopy_sert_3.csv,1,2025-12-22_11h34.06.770,sert_artemis_2025.2.3,2025.2.3,59.17159763,Win32,objects,shape,3.0,['3'],[1.3338000000119337],78.0,images/Lethal_Pills_Blue_Rect.png,images/Safe_SeatBelt_Orange_Rect.png,images/Safe_Goggles_Blue_Rhom.png,634.6379,636.6863,636.6863,637.2365,0.55,0.15,1.9,Lethal,Pills,Blue,Rect,Safe,SeatBelt,Orange,Rect,Safe,Goggles,Blue,Rhom,8.0,1,repeat,1.0,3.0,1.3338000000119337,3.0,1.3338000000119337,1.0,1.3338000000119337,0.0,1.0
sert_test_3,example_data_psychopy_sert_3.csv,1,2025-12-22_11h34.06.770,sert_artemis_2025.2.3,2025.2.3,59.17159763,Win32,objects,shape,1.0,['1'],[1.3581000000237964],79.0,images/Safe_SeatBelt_Orange_Rhom.png,images/Lethal_Noose_1_Orange_Oval.png,images/Lethal_Knife_Blue_Oval.png,637.2375,639.2865,639.2866,639.8364,0.55,0.15,1.9,Safe,SeatBelt,Orange,Rhom,Lethal,Noose_1,Orange,Oval,Lethal,Knife,Blue,Oval,8.0,1,repeat,1.0,1.0,1.3581000000237964,1.0,1.3581000000237964,1.0,1.3581000000237964,0.0,1.0
sert_test_3,example_data_psychopy_sert_3.csv,1,2025-12-22_11h34.06.770,sert_artemis_2025.2.3,2025.2.3,59.17159763,Win32,objects,shape,3.0,['3'],[1.1108000000118636],80.0,images/Safe_Extinguisher_Blue_Rhom.png,images/Lethal_Poison_Orange_Rhom.png,images/Safe_SeatBelt_Orange_Oval.png,639.8373,641.8855,641.8856,642.3366,0.45,0.15,1.9,Safe,Extinguisher,Blue,Rhom,Lethal,Poison,Orange,Rhom,Safe,SeatBelt,Orange,Oval,9.0,3,switch,1.0,3.0,1.1108000000118636,3.0,1.1108000000118636,1.0,1.1108000000118636,0.0,1.0
sert_test_3,example_data_psychopy_sert_3.csv,1,2025-12-22_11h34.06.770,sert_artemis_2025.2.3,2025.2.3,59.17159763,Win32,objects,shape,2.0,"['3', '2']","[1.2661000000239255, 1.87290000003577]",81.0,images/Lethal_Razor_Orange_Oval.png,images/Safe_Buoy_Orange_Rect.png,images/Safe_BearHug_Blue_Oval.png,642.3378,644.3856,644.3857,644.7354,0.35,0.15,1.9,Lethal,Razor,Orange,Oval,Safe,Buoy,Orange,Rect,Safe,BearHug,Blue,Oval,9.0,3,switch,2.0,3.0,1.2661000000239255,2.0,1.87290000003577,1.0,1.87290000003577,1.0,1.0
sert_test_3,example_data_psychopy_sert_3.csv,1,2025-12-22_11h34.06.770,sert_artemis_2025.2.3,2025.2.3,59.17159763,Win32,objects,color,3.0,['3'],[0.9496999999881837],82.0,images/Lethal_Noose_1_Orange_Rhom.png,images/Safe_Extinguisher_Orange_Rect.png,images/Safe_Goggles_Blue_Rhom.png,644.7365,646.7859,646.786,647.2364,0.45,0.15,1.9,Lethal,Noose_1,Orange,Rhom,Safe,Extinguisher,Orange,Rect,Safe,Goggles,Blue,Rhom,9.0,3,switch,1.0,3.0,0.9496999999881837,3.0,0.9496999999881837,1.0,0.9496999999881837,0.0,1.0
sert_test_3,example_data_psychopy_sert_3.csv,1,2025-12-22_11h34.06.770,sert_artemis_2025.2.3,2025.2.3,59.17159763,Win32,objects,color,2.0,['2'],[1.0371999999880472],83.0,images/Inert_Orange_Blue_Oval.png,images/Inert_Book_Orange_Rhom.png,images/Lethal_Poison_Blue_Rhom.png,647.2373,649.2864,649.2865,649.7365,0.45,0.15,1.9,Inert,Orange,Blue,Oval,Inert,Book,Orange,Rhom,Lethal,Poison,Blue,Rhom,9.0,3,switch,1.0,2.0,1.0371999999880472,2.0,1.0371999999880472,1.0,1.0371999999880472,0.0,1.0
sert_test_3,example_data_psychopy_sert_3.csv,1,2025-12-22_11h34.06.770,sert_artemis_2025.2.3,2025.2.3,59.17159763,Win32,objects,lethal,3.0,['3'],[1.6237000000477337],84.0,images/Inert_Hairbrush_Blue_Rect.png,images/Inert_Camera_Orange_Oval.png,images/Lethal_Pills_Blue_Oval.png,649.7381,651.7864,651.7866,652.2362,0.45,0.15,1.9,Inert,Hairbrush,Blue,Rect,Inert,Camera,Orange,Oval,Lethal,Pills,Blue,Oval,9.0,3,switch,1.0,3.0,1.6237000000477337,3.0,1.6237000000477337,1.0,1.6237000000477337,0.0,1.0
sert_test_3,example_data_psychopy_sert_3.csv,1,2025-12-22_11h34.06.770,sert_artemis_2025.2.3,2025.2.3,59.17159763,Win32,objects,lethal,3.0,['3'],[1.6218000000119446],85.0,images/Lethal_Gun_1_Blue_Rect.png,images/Lethal_Pills_Orange_Rhom.png,images/Inert_Hat_Orange_Rect.png,652.2377,654.2866,654.2867,654.6362,0.35,0.15,1.9,Lethal,Gun_1,Blue,Rect,Lethal,Pills,Orange,Rhom,Inert,Hat,Orange,Rect,9.0,3,switch,1.0,3.0,1.6218000000119446,3.0,1.6218000000119446,1.0,1.6218000000119446,0.0,1.0
sert_test_3,example_data_psychopy_sert_3.csv,1,2025-12-22_11h34.06.770,sert_artemis_2025.2.3,2025.2.3,59.17159763,Win32,objects,lethal,2.0,['2'],[1.9578000000119573],86.0,images/Lethal_Pills_Blue_Oval.png,images/Inert_Orange_Orange_Oval.png,images/Lethal_Knife_Orange_Rhom.png,654.6371,656.6861,656.6862,657.1361,0.45,0.15,1.9,Lethal,Pills,Blue,Oval,Inert,Orange,Orange,Oval,Lethal,Knife,Orange,Rhom,9.0,3,switch,1.0,2.0,1.9578000000119573,2.0,1.9578000000119573,1.0,1.9578000000119573,0.0,1.0
sert_test_3,example_data_psychopy_sert_3.csv,1,2025-12-22_11h34.06.770,sert_artemis_2025.2.3,2025.2.3,59.17159763,Win32,objects,shape,2.0,,,87.0,images/Safe_Buoy_Blue_Rect.png,images/Safe_LifeVest_Orange_Oval.png,images/Lethal_Poison_Orange_Rect.png,657.1379,659.1863,659.1863,659.6362,0.45,0.15,1.9,Safe,Buoy,Blue,Rect,Safe,LifeVest,Orange,Oval,Lethal,Poison,Orange,Rect,9.0,3,switch,0.0,,,,,0.0,,0.0,0.0
sert_test_3,example_data_psychopy_sert_3.csv,1,2025-12-22_11h34.06.770,sert_artemis_2025.2.3,2025.2.3,59.17159763,Win32,objects,color,2.0,['2'],[1.5958000000118773],88.0,images/Lethal_Gun_1_Blue_Rect.png,images/Inert_Strawberry_Orange_Oval.png,images/Lethal_Noose_1_Blue_Rhom.png,659.6381,661.6863,661.6864,662.2362,0.55,0.15,1.9,Lethal,Gun_1,Blue,Rect,Inert,Strawberry,Orange,Oval,Lethal,Noose_1,Blue,Rhom,9.0,3,switch,1.0,2.0,1.5958000000118773,2.0,1.5958000000118773,1.0,1.5958000000118773,0.0,1.0
sert_test_3,example_data_psychopy_sert_3.csv,1,2025-12-22_11h34.06.770,sert_artemis_2025.2.3,2025.2.3,59.17159763,Win32,objects,color,2.0,['2'],[1.1586999999880163],89.0,images/Safe_Buoy_Orange_Rhom.png,images/Safe_SeatBelt_Blue_Oval.png,images/Lethal_Pills_Orange_Oval.png,662.2374,664.2862,664.2863,664.6365,0.35,0.15,1.9,Safe,Buoy,Orange,Rhom,Safe,SeatBelt,Blue,Oval,Lethal,Pills,Orange,Oval,9.0,3,switch,1.0,2.0,1.1586999999880163,2.0,1.1586999999880163,1.0,1.1586999999880163,0.0,1.0
sert_test_3,example_data_psychopy_sert_3.csv,1,2025-12-22_11h34.06.770,sert_artemis_2025.2.3,2025.2.3,59.17159763,Win32,objects,lethal,1.0,['2'],[1.5886000000238027],90.0,images/Lethal_Knife_Blue_Rhom.png,images/Inert_Camera_Orange_Rhom.png,images/Inert_Orange_Blue_Rect.png,664.6382,666.6865,666.6865,667.1362,0.45,0.15,1.9,Lethal,Knife,Blue,Rhom,Inert,Camera,Orange,Rhom,Inert,Orange,Blue,Rect,10.0,1,repeat,1.0,2.0,1.5886000000238027,2.0,1.5886000000238027,0.0,,0.0,0.0
sert_test_3,example_data_psychopy_sert_3.csv,1,2025-12-22_11h34.06.770,sert_artemis_2025.2.3,2025.2.3,59.17159763,Win32,objects,lethal,3.0,['2'],[1.4584999999999582],91.0,images/Safe_LifeVest_Orange_Rhom.png,images/Safe_BearHug_Blue_Oval.png,images/Lethal_Razor_Orange_Oval.png,667.1372,669.1863,669.1864,669.7364,0.55,0.15,1.9,Safe,LifeVest,Orange,Rhom,Safe,BearHug,Blue,Oval,Lethal,Razor,Orange,Oval,10.0,1,repeat,1.0,2.0,1.4584999999999582,2.0,1.4584999999999582,0.0,,0.0,0.0
sert_test_3,example_data_psychopy_sert_3.csv,1,2025-12-22_11h34.06.770,sert_artemis_2025.2.3,2025.2.3,59.17159763,Win32,objects,lethal,2.0,['2'],[1.4815000000000964],92.0,images/Inert_Hat_Orange_Oval.png,images/Lethal_Poison_Blue_Oval.png,images/Inert_Hairbrush_Blue_Rhom.png,669.7378,671.7866,671.7867,672.1361,0.35,0.15,1.9,Inert,Hat,Orange,Oval,Lethal,Poison,Blue,Oval,Inert,Hairbrush,Blue,Rhom,10.0,1,repeat,1.0,2.0,1.4815000000000964,2.0,1.4815000000000964,1.0,1.4815000000000964,0.0,1.0
sert_test_3,example_data_psychopy_sert_3.csv,1,2025-12-22_11h34.06.770,sert_artemis_2025.2.3,2025.2.3,59.17159763,Win32,objects,lethal,1.0,['1'],[1.3700000000000045],93.0,images/Lethal_Razor_Orange_Rhom.png,images/Inert_Camera_Blue_Rhom.png,images/Inert_Strawberry_Orange_Rect.png,672.137,674.1856,674.1856,674.5357,0.35,0.15,1.9,Lethal,Razor,Orange,Rhom,Inert,Camera,Blue,Rhom,Inert,Strawberry,Orange,Rect,10.0,1,repeat,1.0,1.0,1.3700000000000045,1.0,1.3700000000000045,1.0,1.3700000000000045,0.0,1.0
sert_test_3,example_data_psychopy_sert_3.csv,1,2025-12-22_11h34.06.770,sert_artemis_2025.2.3,2025.2.3,59.17159763,Win32,objects,lethal,2.0,['2'],[1.5021000000238018],94.0,images/Safe_SeatBelt_Blue_Oval.png,images/Lethal_Knife_Orange_Oval.png,images/Safe_Goggles_Orange_Rect.png,674.5361,676.5862,676.5863,676.9364,0.35,0.15,1.9,Safe,SeatBelt,Blue,Oval,Lethal,Knife,Orange,Oval,Safe,Goggles,Orange,Rect,10.0,1,repeat,1.0,2.0,1.5021000000238018,2.0,1.5021000000238018,1.0,1.5021000000238018,0.0,1.0
sert_test_3,example_data_psychopy_sert_3.csv,1,2025-12-22_11h34.06.770,sert_artemis_2025.2.3,2025.2.3,59.17159763,Win32,objects,lethal,1.0,['1'],[1.8185000000000855],95.0,images/Lethal_Noose_1_Blue_Rect.png,images/Safe_LifeVest_Orange_Rect.png,images/Safe_Extinguisher_Blue_Oval.png,676.9377,678.986,678.9861,679.5364,0.55,0.15,1.9,Lethal,Noose_1,Blue,Rect,Safe,LifeVest,Orange,Rect,Safe,Extinguisher,Blue,Oval,10.0,1,repeat,1.0,1.0,1.8185000000000855,1.0,1.8185000000000855,1.0,1.8185000000000855,0.0,1.0
sert_test_3,example_data_psychopy_sert_3.csv,1,2025-12-22_11h34.06.770,sert_artemis_2025.2.3,2025.2.3,59.17159763,Win32,objects,lethal,1.0,['1'],[1.3975999999643136],96.0,images/Lethal_Razor_Orange_Rect.png,images/Inert_Book_Blue_Rect.png,images/Inert_Orange_Orange_Rhom.png,679.5378,681.5863,681.5863,682.036,0.45,0.15,1.9,Lethal,Razor,Orange,Rect,Inert,Book,Blue,Rect,Inert,Orange,Orange,Rhom,10.0,1,repeat,1.0,1.0,1.3975999999643136,1.0,1.3975999999643136,1.0,1.3975999999643136,0.0,1.0
sert_test_3,example_data_psychopy_sert_3.csv,1,2025-12-22_11h34.06.770,sert_artemis_2025.2.3,2025.2.3,59.17159763,Win32,objects,lethal,1.0,['2'],[1.76010000002384],97.0,images/Lethal_Poison_Blue_Rhom.png,images/Safe_Buoy_Orange_Rhom.png,images/Safe_LifeVest_Blue_Oval.png,682.0366,684.0864,684.0864,684.5364,0.45,0.15,1.9,Lethal,Poison,Blue,Rhom,Safe,Buoy,Orange,Rhom,Safe,LifeVest,Blue,Oval,10.0,1,repeat,1.0,2.0,1.76010000002384,2.0,1.76010000002384,0.0,,0.0,0.0
sert_test_3,example_data_psychopy_sert_3.csv,1,2025-12-22_11h34.06.770,sert_artemis_2025.2.3,2025.2.3,59.17159763,Win32,objects,lethal,2.0,['2'],[1.7213000000119791],98.0,images/Inert_Hairbrush_Blue_Oval.png,images/Lethal_Noose_1_Orange_Oval.png,images/Inert_Book_Orange_Rect.png,684.5377,686.5864,686.5864,687.0359,0.45,0.15,1.9,Inert,Hairbrush,Blue,Oval,Lethal,Noose_1,Orange,Oval,Inert,Book,Orange,Rect,10.0,1,repeat,1.0,2.0,1.7213000000119791,2.0,1.7213000000119791,1.0,1.7213000000119791,0.0,1.0
sert_test_3,example_data_psychopy_sert_3.csv,1,2025-12-22_11h34.06.770,sert_artemis_2025.2.3,2025.2.3,59.17159763,Win32,objects,lethal,1.0,['1'],[1.3024999999998954],99.0,images/Lethal_Knife_Orange_Rect.png,images/Safe_BearHug_Blue_Rect.png,images/Safe_Goggles_Orange_Oval.png,687.0366,689.0858,689.0859,689.4365,0.35,0.15,1.9,Lethal,Knife,Orange,Rect,Safe,BearHug,Blue,Rect,Safe,Goggles,Orange,Oval,10.0,1,repeat,1.0,1.0,1.3024999999998954,1.0,1.3024999999998954,1.0,1.3024999999998954,0.0,1.0
sert_test_3,example_data_psychopy_sert_3.csv,1,2025-12-22_11h34.06.770,sert_artemis_2025.2.3,2025.2.3,59.17159763,Win32,objects,lethal,2.0,['2'],[0.9666999999881227],100.0,images/Safe_SeatBelt_Blue_Rect.png,images/Lethal_Razor_Blue_Rhom.png,images/Safe_Buoy_Orange_Rhom.png,689.4376,691.4867,691.4867,691.936,0.45,0.15,1.9,Safe,SeatBelt,Blue,Rect,Lethal,Razor,Blue,Rhom,Safe,Buoy,Orange,Rhom,11.0,3,switch,1.0,2.0,0.9666999999881227,2.0,0.9666999999881227,1.0,0.9666999999881227,0.0,1.0
sert_test_3,example_data_psychopy_sert_3.csv,1,2025-12-22_11h34.06.770,sert_artemis_2025.2.3,2025.2.3,59.17159763,Win32,objects,lethal,1.0,['1'],[1.5058999999762364],101.0,images/Lethal_Noose_1_Orange_Rect.png,images/Safe_Buoy_Blue_Rect.png,images/Safe_BearHug_Orange_Oval.png,691.9374,693.9861,693.9862,694.3362,0.35,0.15,1.9,Lethal,Noose_1,Orange,Rect,Safe,Buoy,Blue,Rect,Safe,BearHug,Orange,Oval,11.0,3,switch,1.0,1.0,1.5058999999762364,1.0,1.5058999999762364,1.0,1.5058999999762364,0.0,1.0
sert_test_3,example_data_psychopy_sert_3.csv,1,2025-12-22_11h34.06.770,sert_artemis_2025.2.3,2025.2.3,59.17159763,Win32,objects,lethal,3.0,['3'],[1.798100000023851],102.0,images/Lethal_Gun_1_Blue_Rect.png,images/Lethal_Noose_1_Orange_Rhom.png,images/Safe_Goggles_Orange_Rect.png,694.3376,696.386,696.3861,696.7365,0.35,0.15,1.9,Lethal,Gun_1,Blue,Rect,Lethal,Noose_1,Orange,Rhom,Safe,Goggles,Orange,Rect,11.0,3,switch,1.0,3.0,1.798100000023851,3.0,1.798100000023851,1.0,1.798100000023851,0.0,1.0
sert_test_3,example_data_psychopy_sert_3.csv,1,2025-12-22_11h34.06.770,sert_artemis_2025.2.3,2025.2.3,59.17159763,Win32,objects,color,1.0,['1'],[1.0553999999762027],103.0,images/Lethal_Gun_1_Blue_Oval.png,images/Safe_Extinguisher_Orange_Oval.png,images/Lethal_Pills_Orange_Rhom.png,696.7383,698.7867,698.7867,699.3358,0.55,0.15,1.9,Lethal,Gun_1,Blue,Oval,Safe,Extinguisher,Orange,Oval,Lethal,Pills,Orange,Rhom,11.0,3,switch,1.0,1.0,1.0553999999762027,1.0,1.0553999999762027,1.0,1.0553999999762027,0.0,1.0
sert_test_3,example_data_psychopy_sert_3.csv,1,2025-12-22_11h34.06.770,sert_artemis_2025.2.3,2025.2.3,59.17159763,Win32,objects,shape,3.0,['3'],[1.4988000000118973],104.0,images/Lethal_Poison_Blue_Oval.png,images/Inert_Camera_Orange_Oval.png,images/Inert_Camera_Blue_Rect.png,699.337,701.3859,701.3859,701.7359,0.35,0.15,1.9,Lethal,Poison,Blue,Oval,Inert,Camera,Orange,Oval,Inert,Camera,Blue,Rect,11.0,3,switch,1.0,3.0,1.4988000000118973,3.0,1.4988000000118973,1.0,1.4988000000118973,0.0,1.0
sert_test_3,example_data_psychopy_sert_3.csv,1,2025-12-22_11h34.06.770,sert_artemis_2025.2.3,2025.2.3,59.17159763,Win32,objects,lethal,2.0,['2'],[1.5963000000119791],105.0,images/Lethal_Pills_Orange_Rect.png,images/Safe_Extinguisher_Orange_Rhom.png,images/Lethal_Gun_1_Blue_Rhom.png,701.7374,703.7862,703.7862,704.2354,0.45,0.15,1.9,Lethal,Pills,Orange,Rect,Safe,Extinguisher,Orange,Rhom,Lethal,Gun_1,Blue,Rhom,11.0,3,switch,1.0,2.0,1.5963000000119791,2.0,1.5963000000119791,1.0,1.5963000000119791,0.0,1.0
sert_test_3,example_data_psychopy_sert_3.csv,1,2025-12-22_11h34.06.770,sert_artemis_2025.2.3,2025.2.3,59.17159763,Win32,objects,lethal,1.0,['1'],[1.6248000000119873],106.0,images/Lethal_Knife_Blue_Rhom.png,images/Inert_Hat_Blue_Rect.png,images/Inert_Strawberry_Orange_Rhom.png,704.2359,706.2861,706.2862,706.7364,0.45,0.15,1.9,Lethal,Knife,Blue,Rhom,Inert,Hat,Blue,Rect,Inert,Strawberry,Orange,Rhom,11.0,3,switch,1.0,1.0,1.6248000000119873,1.0,1.6248000000119873,1.0,1.6248000000119873,0.0,1.0
sert_test_3,example_data_psychopy_sert_3.csv,1,2025-12-22_11h34.06.770,sert_artemis_2025.2.3,2025.2.3,59.17159763,Win32,objects,shape,1.0,['1'],[1.4078000000120028],107.0,images/Inert_Orange_Blue_Rect.png,images/Lethal_Pills_Blue_Rhom.png,images/Inert_Hat_Orange_Rhom.png,706.7381,708.7863,708.7864,709.336,0.55,0.15,1.9,Inert,Orange,Blue,Rect,Lethal,Pills,Blue,Rhom,Inert,Hat,Orange,Rhom,11.0,3,switch,1.0,1.0,1.4078000000120028,1.0,1.4078000000120028,1.0,1.4078000000120028,0.0,1.0
sert_test_3,example_data_psychopy_sert_3.csv,1,2025-12-22_11h34.06.770,sert_artemis_2025.2.3,2025.2.3,59.17159763,Win32,objects,shape,3.0,['3'],[1.1640999999642645],108.0,images/Safe_SeatBelt_Blue_Rect.png,images/Lethal_Gun_1_Orange_Rect.png,images/Safe_Extinguisher_Orange_Oval.png,709.3369,711.386,711.3861,711.8363,0.45,0.15,1.9,Safe,SeatBelt,Blue,Rect,Lethal,Gun_1,Orange,Rect,Safe,Extinguisher,Orange,Oval,11.0,3,switch,1.0,3.0,1.1640999999642645,3.0,1.1640999999642645,1.0,1.1640999999642645,0.0,1.0
sert_test_3,example_data_psychopy_sert_3.csv,1,2025-12-22_11h34.06.770,sert_artemis_2025.2.3,2025.2.3,59.17159763,Win32,objects,color,1.0,['1'],[1.0460000000000491],109.0,images/Inert_Strawberry_Orange_Rect.png,images/Inert_Book_Blue_Oval.png,images/Lethal_Noose_1_Blue_Rect.png,711.8381,713.8863,713.8864,714.2359,0.35,0.15,1.9,Inert,Strawberry,Orange,Rect,Inert,Book,Blue,Oval,Lethal,Noose_1,Blue,Rect,11.0,3,switch,1.0,1.0,1.0460000000000491,1.0,1.0460000000000491,1.0,1.0460000000000491,0.0,1.0
sert_test_3,example_data_psychopy_sert_3.csv,1,2025-12-22_11h34.06.770,sert_artemis_2025.2.3,2025.2.3,59.17159763,Win32,objects,lethal,3.0,"['2', '3']","[1.542399999976169, 2.0221000000237837]",110.0,images/Lethal_Knife_Blue_Oval.png,images/Lethal_Poison_Orange_Rhom.png,images/Safe_Goggles_Orange_Oval.png,714.2367,716.2865,716.2867,716.7363,0.45,0.15,1.9,Lethal,Knife,Blue,Oval,Lethal,Poison,Orange,Rhom,Safe,Goggles,Orange,Oval,12.0,1,repeat,2.0,2.0,1.542399999976169,3.0,2.0221000000237837,1.0,2.0221000000237837,1.0,1.0
sert_test_3,example_data_psychopy_sert_3.csv,1,2025-12-22_11h34.06.770,sert_artemis_2025.2.3,2025.2.3,59.17159763,Win32,objects,lethal,3.0,,,111.0,images/Lethal_Poison_Orange_Rect.png,images/Lethal_Noose_1_Blue_Oval.png,images/Safe_Buoy_Orange_Oval.png,716.7372,718.7861,718.7862,719.3362,0.55,0.15,1.9,Lethal,Poison,Orange,Rect,Lethal,Noose_1,Blue,Oval,Safe,Buoy,Orange,Oval,12.0,1,repeat,0.0,,,,,0.0,,0.0,0.0
sert_test_3,example_data_psychopy_sert_3.csv,1,2025-12-22_11h34.06.770,sert_artemis_2025.2.3,2025.2.3,59.17159763,Win32,objects,lethal,1.0,['1'],[1.1819999999999027],112.0,images/Safe_LifeVest_Orange_Rect.png,images/Lethal_Pills_Orange_Rhom.png,images/Lethal_Poison_Blue_Rect.png,719.3372,721.386,721.3861,721.8361,0.45,0.15,1.9,Safe,LifeVest,Orange,Rect,Lethal,Pills,Orange,Rhom,Lethal,Poison,Blue,Rect,12.0,1,repeat,1.0,1.0,1.1819999999999027,1.0,1.1819999999999027,1.0,1.1819999999999027,0.0,1.0
sert_test_3,example_data_psychopy_sert_3.csv,1,2025-12-22_11h34.06.770,sert_artemis_2025.2.3,2025.2.3,59.17159763,Win32,objects,lethal,2.0,['1'],[1.7505999999642654],113.0,images/Lethal_Pills_Blue_Oval.png,images/Safe_SeatBelt_Orange_Oval.png,images/Lethal_Gun_1_Orange_Rhom.png,721.8371,723.8861,723.8863,724.4361,0.55,0.15,1.9,Lethal,Pills,Blue,Oval,Safe,SeatBelt,Orange,Oval,Lethal,Gun_1,Orange,Rhom,12.0,1,repeat,1.0,1.0,1.7505999999642654,1.0,1.7505999999642654,0.0,,0.0,0.0
sert_test_3,example_data_psychopy_sert_3.csv,1,2025-12-22_11h34.06.770,sert_artemis_2025.2.3,2025.2.3,59.17159763,Win32,objects,lethal,3.0,['3'],[1.7091999999881864],114.0,images/Lethal_Razor_Blue_Oval.png,images/Lethal_Knife_Orange_Rhom.png,images/Safe_LifeVest_Blue_Rhom.png,724.4372,726.4862,726.4864,726.9363,0.45,0.15,1.9,Lethal,Razor,Blue,Oval,Lethal,Knife,Orange,Rhom,Safe,LifeVest,Blue,Rhom,12.0,1,repeat,1.0,3.0,1.7091999999881864,3.0,1.7091999999881864,1.0,1.7091999999881864,0.0,1.0
sert_test_3,example_data_psychopy_sert_3.csv,1,2025-12-22_11h34.06.770,sert_artemis_2025.2.3,2025.2.3,59.17159763,Win32,objects,lethal,1.0,['1'],[1.5163999999761018],115.0,images/Safe_SeatBelt_Blue_Rhom.png,images/Lethal_Pills_Blue_Rect.png,images/Lethal_Gun_1_Orange_Rhom.png,726.9371,728.986,728.986,729.436,0.45,0.15,1.9,Safe,SeatBelt,Blue,Rhom,Lethal,Pills,Blue,Rect,Lethal,Gun_1,Orange,Rhom,12.0,1,repeat,1.0,1.0,1.5163999999761018,1.0,1.5163999999761018,1.0,1.5163999999761018,0.0,1.0
sert_test_3,example_data_psychopy_sert_3.csv,1,2025-12-22_11h34.06.770,sert_artemis_2025.2.3,2025.2.3,59.17159763,Win32,objects,lethal,1.0,['1'],[1.4650000000000318],116.0,images/Safe_Extinguisher_Blue_Oval.png,images/Lethal_Poison_Blue_Rhom.png,images/Lethal_Noose_1_Orange_Oval.png,729.4369,731.4855,731.4856,731.8362,0.35,0.15,1.9,Safe,Extinguisher,Blue,Oval,Lethal,Poison,Blue,Rhom,Lethal,Noose_1,Orange,Oval,12.0,1,repeat,1.0,1.0,1.4650000000000318,1.0,1.4650000000000318,1.0,1.4650000000000318,0.0,1.0
sert_test_3,example_data_psychopy_sert_3.csv,1,2025-12-22_11h34.06.770,sert_artemis_2025.2.3,2025.2.3,59.17159763,Win32,objects,lethal,3.0,['3'],[1.7981999999880145],117.0,images/Lethal_Gun_1_Blue_Rect.png,images/Lethal_Razor_Orange_Oval.png,images/Safe_BearHug_Blue_Oval.png,731.8372,733.8863,733.8864,734.3354,0.45,0.15,1.9,Lethal,Gun_1,Blue,Rect,Lethal,Razor,Orange,Oval,Safe,BearHug,Blue,Oval,12.0,1,repeat,1.0,3.0,1.7981999999880145,3.0,1.7981999999880145,1.0,1.7981999999880145,0.0,1.0
sert_test_3,example_data_psychopy_sert_3.csv,1,2025-12-22_11h34.06.770,sert_artemis_2025.2.3,2025.2.3,59.17159763,Win32,objects,lethal,1.0,['1'],[1.7509999999999764],118.0,images/Safe_LifeVest_Orange_Rhom.png,images/Lethal_Pills_Blue_Rhom.png,images/Lethal_Knife_Orange_Rect.png,734.3359,736.3861,736.3863,736.8365,0.45,0.15,1.9,Safe,LifeVest,Orange,Rhom,Lethal,Pills,Blue,Rhom,Lethal,Knife,Orange,Rect,12.0,1,repeat,1.0,1.0,1.7509999999999764,1.0,1.7509999999999764,1.0,1.7509999999999764,0.0,1.0
sert_test_3,example_data_psychopy_sert_3.csv,1,2025-12-22_11h34.06.770,sert_artemis_2025.2.3,2025.2.3,59.17159763,Win32,objects,lethal,3.0,['3'],[1.3266999999880227],119.0,images/Lethal_Noose_1_Blue_Oval.png,images/Lethal_Razor_Orange_Rhom.png,images/Safe_Buoy_Blue_Rhom.png,736.8373,738.8863,738.8863,739.4363,0.55,0.15,1.9,Lethal,Noose_1,Blue,Oval,Lethal,Razor,Orange,Rhom,Safe,Buoy,Blue,Rhom,12.0,1,repeat,1.0,3.0,1.3266999999880227,3.0,1.3266999999880227,1.0,1.3266999999880227,0.0,1.0
