id,filename,session,datetime,exp_name,software_version,framerate,os,trial,block,test,condition,subblock,subblock_type,change_color,emot_color_switch,this_word,this_color,this_duration,response,rt,num_responses,response_first,response_last,rt_first,rt_last,correct_opt,correct
test1,test1_stroop.csv,0,2020-01-01_00h00.00.000,stroop_artemis_2025.2.3,2025.2.4,60.24096386,Win32,0.0,0.0,emotional,neutral,91.0,Neutx2_Neg,1.0,,hour,hotpink,1.167,['l'],[0.5501000000005547],1.0,3.0,3.0,0.5501000000005547,0.5501000000005547,3,1.0
test1,test1_stroop.csv,0,2020-01-01_00h00.00.000,stroop_artemis_2025.2.3,2025.2.4,60.24096386,Win32,1.0,0.0,emotional,neutral,91.0,Neutx2_Neg,0.0,,spray,hotpink,1.117,['l'],[0.6328999999994593],1.0,3.0,3.0,0.6328999999994593,0.6328999999994593,3,1.0
test1,test1_stroop.csv,0,2020-01-01_00h00.00.000,stroop_artemis_2025.2.3,2025.2.4,60.24096386,Win32,2.0,0.0,emotional,negative,91.0,Neutx2_Neg,0.0,NeutNegNoSwitch,death,hotpink,1.05,['l'],[0.7963999999994371],1.0,3.0,3.0,0.7963999999994371,0.7963999999994371,3,1.0
test1,test1_stroop.csv,0,2020-01-01_00h00.00.000,stroop_artemis_2025.2.3,2025.2.4,60.24096386,Win32,3.0,0.0,emotional,neutral,92.0,Neutx4_Neg,1.0,,wheelbarrow,saddlebrown,1.084,['k'],[0.5305000000000035],1.0,2.0,2.0,0.5305000000000035,0.5305000000000035,2,1.0
test1,test1_stroop.csv,0,2020-01-01_00h00.00.000,stroop_artemis_2025.2.3,2025.2.4,60.24096386,Win32,4.0,0.0,emotional,neutral,92.0,Neutx4_Neg,0.0,,shake,saddlebrown,1.0,['k'],[0.7295000000000016],1.0,2.0,2.0,0.7295000000000016,0.7295000000000016,2,1.0
test1,test1_stroop.csv,0,2020-01-01_00h00.00.000,stroop_artemis_2025.2.3,2025.2.4,60.24096386,Win32,5.0,0.0,emotional,negative,92.0,Neutx4_Neg,1.0,NeutNegSwitch,pathetic,hotpink,1.15,['l'],[0.6071000000005569],1.0,3.0,3.0,0.6071000000005569,0.6071000000005569,3,1.0
test1,test1_stroop.csv,0,2020-01-01_00h00.00.000,stroop_artemis_2025.2.3,2025.2.4,60.24096386,Win32,6.0,0.0,emotional,negative,93.0,Negx4,0.0,,cancer,hotpink,1.034,['l'],[0.6267000000001985],1.0,3.0,3.0,0.6267000000001985,0.6267000000001985,3,1.0
test1,test1_stroop.csv,0,2020-01-01_00h00.00.000,stroop_artemis_2025.2.3,2025.2.4,60.24096386,Win32,7.0,0.0,emotional,negative,93.0,Negx4,0.0,NegNoSwitch,stress,hotpink,1.184,['l'],[0.41390000000038185],1.0,3.0,3.0,0.41390000000038185,0.41390000000038185,3,1.0
test1,test1_stroop.csv,0,2020-01-01_00h00.00.000,stroop_artemis_2025.2.3,2025.2.4,60.24096386,Win32,8.0,0.0,emotional,neutral,94.0,Neutx3_Pos,1.0,,fashion,blue,1.067,['j'],[0.4750000000000085],1.0,1.0,1.0,0.4750000000000085,0.4750000000000085,1,1.0
test1,test1_stroop.csv,0,2020-01-01_00h00.00.000,stroop_artemis_2025.2.3,2025.2.4,60.24096386,Win32,9.0,0.0,emotional,neutral,94.0,Neutx3_Pos,0.0,,suspense,blue,1.2,['j'],[0.4722000000001856],1.0,1.0,1.0,0.4722000000001856,0.4722000000001856,1,1.0
test1,test1_stroop.csv,0,2020-01-01_00h00.00.000,stroop_artemis_2025.2.3,2025.2.4,60.24096386,Win32,10.0,0.0,emotional,positive,94.0,Neutx3_Pos,0.0,NeutPosNoSwitch,splendid,blue,1.134,['j'],[0.387100000000558],1.0,1.0,1.0,0.387100000000558,0.387100000000558,1,1.0
test1,test1_stroop.csv,0,2020-01-01_00h00.00.000,stroop_artemis_2025.2.3,2025.2.4,60.24096386,Win32,11.0,0.0,emotional,positive,95.0,Posx3,0.0,,clever,blue,1.1,['j'],[0.3534999999999968],1.0,1.0,1.0,0.3534999999999968,0.3534999999999968,1,1.0
test1,test1_stroop.csv,0,2020-01-01_00h00.00.000,stroop_artemis_2025.2.3,2025.2.4,60.24096386,Win32,12.0,0.0,emotional,positive,95.0,Posx3,1.0,PosSwitch,trust,hotpink,1.017,['l'],[0.7938000000007435],1.0,3.0,3.0,0.7938000000007435,0.7938000000007435,3,1.0
test1,test1_stroop.csv,0,2020-01-01_00h00.00.000,stroop_artemis_2025.2.3,2025.2.4,60.24096386,Win32,13.0,0.0,emotional,neutral,96.0,Neutx4_Pos,1.0,,info,blue,1.15,['j'],[0.5983999999994438],1.0,1.0,1.0,0.5983999999994438,0.5983999999994438,1,1.0
test1,test1_stroop.csv,0,2020-01-01_00h00.00.000,stroop_artemis_2025.2.3,2025.2.4,60.24096386,Win32,14.0,0.0,emotional,neutral,96.0,Neutx4_Pos,0.0,,fridge,blue,1.1,['j'],[0.4156000000005662],1.0,1.0,1.0,0.4156000000005662,0.4156000000005662,1,1.0
test1,test1_stroop.csv,0,2020-01-01_00h00.00.000,stroop_artemis_2025.2.3,2025.2.4,60.24096386,Win32,15.0,0.0,emotional,positive,96.0,Neutx4_Pos,0.0,NeutPosNoSwitch,sociable,blue,1.167,['j'],[0.49499999999999034],1.0,1.0,1.0,0.49499999999999034,0.49499999999999034,1,1.0
test1,test1_stroop.csv,0,2020-01-01_00h00.00.000,stroop_artemis_2025.2.3,2025.2.4,60.24096386,Win32,16.0,0.0,emotional,neutral,97.0,Neutx3_Neg,1.0,,interview,hotpink,1.067,['l'],[0.5868999999994458],1.0,3.0,3.0,0.5868999999994458,0.5868999999994458,3,1.0
test1,test1_stroop.csv,0,2020-01-01_00h00.00.000,stroop_artemis_2025.2.3,2025.2.4,60.24096386,Win32,17.0,0.0,emotional,neutral,97.0,Neutx3_Neg,0.0,,attic,hotpink,1.134,['l'],[0.5347999999998194],1.0,3.0,3.0,0.5347999999998194,0.5347999999998194,3,1.0
test1,test1_stroop.csv,0,2020-01-01_00h00.00.000,stroop_artemis_2025.2.3,2025.2.4,60.24096386,Win32,18.0,0.0,emotional,negative,97.0,Neutx3_Neg,0.0,NeutNegNoSwitch,sad,hotpink,1.117,['l'],[0.3469999999999942],1.0,3.0,3.0,0.3469999999999942,0.3469999999999942,3,1.0
test1,test1_stroop.csv,0,2020-01-01_00h00.00.000,stroop_artemis_2025.2.3,2025.2.4,60.24096386,Win32,19.0,0.0,emotional,neutral,98.0,Neutx5_Pos,1.0,,commanding,saddlebrown,1.05,['k'],[0.7879999999999967],1.0,2.0,2.0,0.7879999999999967,0.7879999999999967,2,1.0
test1,test1_stroop.csv,0,2020-01-01_00h00.00.000,stroop_artemis_2025.2.3,2025.2.4,60.24096386,Win32,20.0,0.0,emotional,neutral,98.0,Neutx5_Pos,0.0,,graphic,saddlebrown,1.034,['k'],[0.3364000000003813],1.0,2.0,2.0,0.3364000000003813,0.3364000000003813,2,1.0
test1,test1_stroop.csv,0,2020-01-01_00h00.00.000,stroop_artemis_2025.2.3,2025.2.4,60.24096386,Win32,21.0,0.0,emotional,positive,98.0,Neutx5_Pos,0.0,NeutPosNoSwitch,colorful,saddlebrown,1.084,['k'],[0.36870000000018877],1.0,2.0,2.0,0.36870000000018877,0.36870000000018877,2,1.0
test1,test1_stroop.csv,0,2020-01-01_00h00.00.000,stroop_artemis_2025.2.3,2025.2.4,60.24096386,Win32,22.0,0.0,emotional,neutral,99.0,Neutx3_Pos,1.0,,sunscreen,hotpink,1.2,['l'],[0.4635999999996159],1.0,3.0,3.0,0.4635999999996159,0.4635999999996159,3,1.0
test1,test1_stroop.csv,0,2020-01-01_00h00.00.000,stroop_artemis_2025.2.3,2025.2.4,60.24096386,Win32,23.0,0.0,emotional,neutral,99.0,Neutx3_Pos,0.0,,giant,hotpink,1.0,['l'],[0.3914000000003739],1.0,3.0,3.0,0.3914000000003739,0.3914000000003739,3,1.0
test1,test1_stroop.csv,0,2020-01-01_00h00.00.000,stroop_artemis_2025.2.3,2025.2.4,60.24096386,Win32,24.0,0.0,emotional,positive,99.0,Neutx3_Pos,0.0,NeutPosNoSwitch,tranquil,hotpink,1.017,['l'],[0.48729999999982],1.0,3.0,3.0,0.48729999999982,0.48729999999982,3,1.0
test1,test1_stroop.csv,0,2020-01-01_00h00.00.000,stroop_artemis_2025.2.3,2025.2.4,60.24096386,Win32,25.0,0.0,emotional,neutral,100.0,Neutx2_Pos,1.0,,warehouse,saddlebrown,1.184,['k'],[0.6355000000000075],1.0,2.0,2.0,0.6355000000000075,0.6355000000000075,2,1.0
test1,test1_stroop.csv,0,2020-01-01_00h00.00.000,stroop_artemis_2025.2.3,2025.2.4,60.24096386,Win32,26.0,0.0,emotional,neutral,100.0,Neutx2_Pos,0.0,,gigantic,saddlebrown,1.034,['k'],[0.4369999999999976],1.0,2.0,2.0,0.4369999999999976,0.4369999999999976,2,1.0
test1,test1_stroop.csv,0,2020-01-01_00h00.00.000,stroop_artemis_2025.2.3,2025.2.4,60.24096386,Win32,27.0,0.0,emotional,positive,100.0,Neutx2_Pos,1.0,NeutPosSwitch,superior,hotpink,1.017,['l'],[0.7338000000007412],1.0,3.0,3.0,0.7338000000007412,0.7338000000007412,3,1.0
test1,test1_stroop.csv,0,2020-01-01_00h00.00.000,stroop_artemis_2025.2.3,2025.2.4,60.24096386,Win32,28.0,0.0,emotional,neutral,101.0,Neutx2_Pos,1.0,,whiskers,saddlebrown,1.184,['k'],[0.617700000000184],1.0,2.0,2.0,0.617700000000184,0.617700000000184,2,1.0
test1,test1_stroop.csv,0,2020-01-01_00h00.00.000,stroop_artemis_2025.2.3,2025.2.4,60.24096386,Win32,29.0,0.0,emotional,neutral,101.0,Neutx2_Pos,0.0,,tilt,saddlebrown,1.167,['k'],[0.3452999999998241],1.0,2.0,2.0,0.3452999999998241,0.3452999999998241,2,1.0
test1,test1_stroop.csv,0,2020-01-01_00h00.00.000,stroop_artemis_2025.2.3,2025.2.4,60.24096386,Win32,30.0,0.0,emotional,positive,101.0,Neutx2_Pos,0.0,NeutPosNoSwitch,darling,saddlebrown,1.2,['k'],[0.2997999999998058],1.0,2.0,2.0,0.2997999999998058,0.2997999999998058,2,1.0
test1,test1_stroop.csv,0,2020-01-01_00h00.00.000,stroop_artemis_2025.2.3,2025.2.4,60.24096386,Win32,31.0,0.0,emotional,negative,102.0,Negx2,1.0,,alone,blue,1.0,['j'],[0.5602999999998133],1.0,1.0,1.0,0.5602999999998133,0.5602999999998133,1,1.0
test1,test1_stroop.csv,0,2020-01-01_00h00.00.000,stroop_artemis_2025.2.3,2025.2.4,60.24096386,Win32,32.0,0.0,emotional,negative,102.0,Negx2,1.0,NegSwitch,stubborn,saddlebrown,1.117,['k'],[0.5567999999998108],1.0,2.0,2.0,0.5567999999998108,0.5567999999998108,2,1.0
test1,test1_stroop.csv,0,2020-01-01_00h00.00.000,stroop_artemis_2025.2.3,2025.2.4,60.24096386,Win32,33.0,0.0,emotional,neutral,103.0,Neutx3_Neg,1.0,,town,hotpink,1.067,['l'],[0.5122999999998115],1.0,3.0,3.0,0.5122999999998115,0.5122999999998115,3,1.0
test1,test1_stroop.csv,0,2020-01-01_00h00.00.000,stroop_artemis_2025.2.3,2025.2.4,60.24096386,Win32,34.0,0.0,emotional,neutral,103.0,Neutx3_Neg,0.0,,ginger,hotpink,1.1,['k'],[0.40450000000001296],1.0,2.0,2.0,0.40450000000001296,0.40450000000001296,3,0.0
test1,test1_stroop.csv,0,2020-01-01_00h00.00.000,stroop_artemis_2025.2.3,2025.2.4,60.24096386,Win32,35.0,0.0,emotional,negative,103.0,Neutx3_Neg,1.0,NeutNegSwitch,shame,blue,1.134,['j'],[0.6945999999996246],1.0,1.0,1.0,0.6945999999996246,0.6945999999996246,1,1.0
test1,test1_stroop.csv,0,2020-01-01_00h00.00.000,stroop_artemis_2025.2.3,2025.2.4,60.24096386,Win32,36.0,0.0,emotional,neutral,104.0,Neutx2_Neg,1.0,,slant,saddlebrown,1.05,['k'],[0.5940999999996279],1.0,2.0,2.0,0.5940999999996279,0.5940999999996279,2,1.0
test1,test1_stroop.csv,0,2020-01-01_00h00.00.000,stroop_artemis_2025.2.3,2025.2.4,60.24096386,Win32,37.0,0.0,emotional,neutral,104.0,Neutx2_Neg,0.0,,pretend,saddlebrown,1.084,['k'],[0.44270000000018683],1.0,2.0,2.0,0.44270000000018683,0.44270000000018683,2,1.0
test1,test1_stroop.csv,0,2020-01-01_00h00.00.000,stroop_artemis_2025.2.3,2025.2.4,60.24096386,Win32,38.0,0.0,emotional,negative,104.0,Neutx2_Neg,1.0,NeutNegSwitch,defective,blue,1.15,['j'],[0.644700000000185],1.0,1.0,1.0,0.644700000000185,0.644700000000185,1,1.0
test1,test1_stroop.csv,0,2020-01-01_00h00.00.000,stroop_artemis_2025.2.3,2025.2.4,60.24096386,Win32,39.0,0.0,emotional,neutral,105.0,Neutx4_Neg,1.0,,flip,saddlebrown,1.2,['k'],[0.5181000000005582],1.0,2.0,2.0,0.5181000000005582,0.5181000000005582,2,1.0
test1,test1_stroop.csv,0,2020-01-01_00h00.00.000,stroop_artemis_2025.2.3,2025.2.4,60.24096386,Win32,40.0,0.0,emotional,neutral,105.0,Neutx4_Neg,0.0,,principal,saddlebrown,1.134,['k'],[0.4624999999999915],1.0,2.0,2.0,0.4624999999999915,0.4624999999999915,2,1.0
test1,test1_stroop.csv,0,2020-01-01_00h00.00.000,stroop_artemis_2025.2.3,2025.2.4,60.24096386,Win32,41.0,0.0,emotional,negative,105.0,Neutx4_Neg,0.0,NeutNegNoSwitch,blunder,saddlebrown,1.067,['k'],[0.33849999999999625],1.0,2.0,2.0,0.33849999999999625,0.33849999999999625,2,1.0
test1,test1_stroop.csv,0,2020-01-01_00h00.00.000,stroop_artemis_2025.2.3,2025.2.4,60.24096386,Win32,42.0,0.0,emotional,neutral,106.0,Neutx5_Neg,1.0,,testify,hotpink,1.017,['l'],[0.8457999999998123],1.0,3.0,3.0,0.8457999999998123,0.8457999999998123,3,1.0
test1,test1_stroop.csv,0,2020-01-01_00h00.00.000,stroop_artemis_2025.2.3,2025.2.4,60.24096386,Win32,43.0,0.0,emotional,neutral,106.0,Neutx5_Neg,0.0,,unit,hotpink,1.084,['l'],[0.662399999999451],1.0,3.0,3.0,0.662399999999451,0.662399999999451,3,1.0
test1,test1_stroop.csv,0,2020-01-01_00h00.00.000,stroop_artemis_2025.2.3,2025.2.4,60.24096386,Win32,44.0,0.0,emotional,negative,106.0,Neutx5_Neg,1.0,NeutNegSwitch,funeral,blue,1.117,['j'],[0.797299999999808],1.0,1.0,1.0,0.797299999999808,0.797299999999808,1,1.0
test1,test1_stroop.csv,0,2020-01-01_00h00.00.000,stroop_artemis_2025.2.3,2025.2.4,60.24096386,Win32,45.0,0.0,emotional,neutral,107.0,Neutx4_Neg,1.0,,striped,saddlebrown,1.05,['k'],[0.6188999999994422],1.0,2.0,2.0,0.6188999999994422,0.6188999999994422,2,1.0
test1,test1_stroop.csv,0,2020-01-01_00h00.00.000,stroop_artemis_2025.2.3,2025.2.4,60.24096386,Win32,46.0,0.0,emotional,neutral,107.0,Neutx4_Neg,0.0,,rapid,saddlebrown,1.167,['k'],[0.769700000000185],1.0,2.0,2.0,0.769700000000185,0.769700000000185,2,1.0
test1,test1_stroop.csv,0,2020-01-01_00h00.00.000,stroop_artemis_2025.2.3,2025.2.4,60.24096386,Win32,47.0,0.0,emotional,negative,107.0,Neutx4_Neg,1.0,NeutNegSwitch,insult,blue,1.15,['j'],[1.0410999999996307],1.0,1.0,1.0,1.0410999999996307,1.0410999999996307,1,1.0
test1,test1_stroop.csv,0,2020-01-01_00h00.00.000,stroop_artemis_2025.2.3,2025.2.4,60.24096386,Win32,48.0,0.0,emotional,positive,108.0,Posx3,1.0,,sunshine,hotpink,1.0,['l'],[0.6697999999998103],1.0,3.0,3.0,0.6697999999998103,0.6697999999998103,3,1.0
test1,test1_stroop.csv,0,2020-01-01_00h00.00.000,stroop_artemis_2025.2.3,2025.2.4,60.24096386,Win32,49.0,0.0,emotional,positive,108.0,Posx3,0.0,,dignified,hotpink,1.034,['l'],[0.3960000000000008],1.0,3.0,3.0,0.3960000000000008,0.3960000000000008,3,1.0
test1,test1_stroop.csv,0,2020-01-01_00h00.00.000,stroop_artemis_2025.2.3,2025.2.4,60.24096386,Win32,50.0,0.0,emotional,positive,108.0,Posx3,1.0,PosSwitch,embrace,blue,1.1,['k'],[0.4480000000000075],1.0,2.0,2.0,0.4480000000000075,0.4480000000000075,1,0.0
test1,test1_stroop.csv,0,2020-01-01_00h00.00.000,stroop_artemis_2025.2.3,2025.2.4,60.24096386,Win32,51.0,0.0,emotional,neutral,109.0,Neutx4_Pos,1.0,,electricity,saddlebrown,1.184,['k'],[0.369000000000014],1.0,2.0,2.0,0.369000000000014,0.369000000000014,2,1.0
test1,test1_stroop.csv,0,2020-01-01_00h00.00.000,stroop_artemis_2025.2.3,2025.2.4,60.24096386,Win32,52.0,0.0,emotional,neutral,109.0,Neutx4_Pos,0.0,,mall,saddlebrown,1.184,['k'],[0.4294000000003564],1.0,2.0,2.0,0.4294000000003564,0.4294000000003564,2,1.0
test1,test1_stroop.csv,0,2020-01-01_00h00.00.000,stroop_artemis_2025.2.3,2025.2.4,60.24096386,Win32,53.0,0.0,emotional,positive,109.0,Neutx4_Pos,0.0,NeutPosNoSwitch,humorous,saddlebrown,1.1,['k'],[0.33939999999941506],1.0,2.0,2.0,0.33939999999941506,0.33939999999941506,2,1.0
test1,test1_stroop.csv,0,2020-01-01_00h00.00.000,stroop_artemis_2025.2.3,2025.2.4,60.24096386,Win32,54.0,0.0,emotional,neutral,110.0,Neutx5_Pos,1.0,,rocker,blue,1.017,['j'],[0.49749999999998806],1.0,1.0,1.0,0.49749999999998806,0.49749999999998806,1,1.0
test1,test1_stroop.csv,0,2020-01-01_00h00.00.000,stroop_artemis_2025.2.3,2025.2.4,60.24096386,Win32,55.0,0.0,emotional,neutral,110.0,Neutx5_Pos,0.0,,jeans,blue,1.0,['j'],[0.7299999999999898],1.0,1.0,1.0,0.7299999999999898,0.7299999999999898,1,1.0
test1,test1_stroop.csv,0,2020-01-01_00h00.00.000,stroop_artemis_2025.2.3,2025.2.4,60.24096386,Win32,56.0,0.0,emotional,positive,110.0,Neutx5_Pos,1.0,NeutPosSwitch,kiss,hotpink,1.167,['l'],[0.53940000000037],1.0,3.0,3.0,0.53940000000037,0.53940000000037,3,1.0
test1,test1_stroop.csv,0,2020-01-01_00h00.00.000,stroop_artemis_2025.2.3,2025.2.4,60.24096386,Win32,57.0,0.0,emotional,negative,111.0,Negx2,1.0,,mad,saddlebrown,1.067,['k'],[0.6599999999999966],1.0,2.0,2.0,0.6599999999999966,0.6599999999999966,2,1.0
test1,test1_stroop.csv,0,2020-01-01_00h00.00.000,stroop_artemis_2025.2.3,2025.2.4,60.24096386,Win32,58.0,0.0,emotional,negative,111.0,Negx2,0.0,NegNoSwitch,despair,saddlebrown,1.05,['k'],[0.5444000000003939],1.0,2.0,2.0,0.5444000000003939,0.5444000000003939,2,1.0
test1,test1_stroop.csv,0,2020-01-01_00h00.00.000,stroop_artemis_2025.2.3,2025.2.4,60.24096386,Win32,59.0,0.0,emotional,positive,112.0,Posx2,1.0,,delighted,blue,1.084,['k'],[0.46779999999981214],1.0,2.0,2.0,0.46779999999981214,0.46779999999981214,1,0.0
test1,test1_stroop.csv,0,2020-01-01_00h00.00.000,stroop_artemis_2025.2.3,2025.2.4,60.24096386,Win32,60.0,0.0,emotional,positive,112.0,Posx2,0.0,PosNoSwitch,lullaby,blue,1.117,['j'],[0.5939999999999941],1.0,1.0,1.0,0.5939999999999941,0.5939999999999941,1,1.0
test1,test1_stroop.csv,0,2020-01-01_00h00.00.000,stroop_artemis_2025.2.3,2025.2.4,60.24096386,Win32,61.0,0.0,emotional,neutral,113.0,Neutx5_Pos,1.0,,howl,saddlebrown,1.2,['k'],[0.844600000000554],1.0,2.0,2.0,0.844600000000554,0.844600000000554,2,1.0
test1,test1_stroop.csv,0,2020-01-01_00h00.00.000,stroop_artemis_2025.2.3,2025.2.4,60.24096386,Win32,62.0,0.0,emotional,neutral,113.0,Neutx5_Pos,0.0,,volume,saddlebrown,1.134,['k'],[0.3677999999997894],1.0,2.0,2.0,0.3677999999997894,0.3677999999997894,2,1.0
test1,test1_stroop.csv,0,2020-01-01_00h00.00.000,stroop_artemis_2025.2.3,2025.2.4,60.24096386,Win32,63.0,0.0,emotional,positive,113.0,Neutx5_Pos,1.0,NeutPosSwitch,hope,hotpink,1.034,['l'],[0.47720000000018103],1.0,3.0,3.0,0.47720000000018103,0.47720000000018103,3,1.0
test1,test1_stroop.csv,0,2020-01-01_00h00.00.000,stroop_artemis_2025.2.3,2025.2.4,60.24096386,Win32,64.0,0.0,emotional,neutral,114.0,Neutx4_Pos,1.0,,warrior,blue,1.15,['j'],[0.505500000000012],1.0,1.0,1.0,0.505500000000012,0.505500000000012,1,1.0
test1,test1_stroop.csv,0,2020-01-01_00h00.00.000,stroop_artemis_2025.2.3,2025.2.4,60.24096386,Win32,65.0,0.0,emotional,neutral,114.0,Neutx4_Pos,0.0,,join,blue,1.067,['j'],[0.8036999999992531],1.0,1.0,1.0,0.8036999999992531,0.8036999999992531,1,1.0
test1,test1_stroop.csv,0,2020-01-01_00h00.00.000,stroop_artemis_2025.2.3,2025.2.4,60.24096386,Win32,66.0,0.0,emotional,positive,114.0,Neutx4_Pos,0.0,NeutPosNoSwitch,new,blue,1.05,['j'],[0.6974999999999909],1.0,1.0,1.0,0.6974999999999909,0.6974999999999909,1,1.0
test1,test1_stroop.csv,0,2020-01-01_00h00.00.000,stroop_artemis_2025.2.3,2025.2.4,60.24096386,Win32,67.0,0.0,emotional,negative,115.0,Negx3,1.0,,ashamed,hotpink,1.167,['l'],[0.7602000000001681],1.0,3.0,3.0,0.7602000000001681,0.7602000000001681,3,1.0
test1,test1_stroop.csv,0,2020-01-01_00h00.00.000,stroop_artemis_2025.2.3,2025.2.4,60.24096386,Win32,68.0,0.0,emotional,negative,115.0,Negx3,0.0,,sneer,hotpink,1.084,['l'],[0.800299999999794],1.0,3.0,3.0,0.800299999999794,0.800299999999794,3,1.0
test1,test1_stroop.csv,0,2020-01-01_00h00.00.000,stroop_artemis_2025.2.3,2025.2.4,60.24096386,Win32,69.0,0.0,emotional,negative,115.0,Negx3,0.0,NegNoSwitch,immature,hotpink,1.134,['l'],[0.4121999999992738],1.0,3.0,3.0,0.4121999999992738,0.4121999999992738,3,1.0
test1,test1_stroop.csv,0,2020-01-01_00h00.00.000,stroop_artemis_2025.2.3,2025.2.4,60.24096386,Win32,70.0,0.0,emotional,neutral,116.0,Neutx1_Neg,1.0,,military,saddlebrown,1.2,['k'],[0.5216000000005749],1.0,2.0,2.0,0.5216000000005749,0.5216000000005749,2,1.0
test1,test1_stroop.csv,0,2020-01-01_00h00.00.000,stroop_artemis_2025.2.3,2025.2.4,60.24096386,Win32,71.0,0.0,emotional,negative,116.0,Neutx1_Neg,1.0,NeutNegSwitch,lousy,blue,1.0,['j'],[0.6617000000001667],1.0,1.0,1.0,0.6617000000001667,0.6617000000001667,1,1.0
test1,test1_stroop.csv,0,2020-01-01_00h00.00.000,stroop_artemis_2025.2.3,2025.2.4,60.24096386,Win32,72.0,0.0,emotional,neutral,117.0,Neutx5_Neg,1.0,,decimal,hotpink,1.15,['l'],[0.7984000000003846],1.0,3.0,3.0,0.7984000000003846,0.7984000000003846,3,1.0
test1,test1_stroop.csv,0,2020-01-01_00h00.00.000,stroop_artemis_2025.2.3,2025.2.4,60.24096386,Win32,73.0,0.0,emotional,neutral,117.0,Neutx5_Neg,0.0,,zigzag,hotpink,1.117,['l'],[0.4689999999999941],1.0,3.0,3.0,0.4689999999999941,0.4689999999999941,3,1.0
test1,test1_stroop.csv,0,2020-01-01_00h00.00.000,stroop_artemis_2025.2.3,2025.2.4,60.24096386,Win32,74.0,0.0,emotional,negative,117.0,Neutx5_Neg,1.0,NeutNegSwitch,dumb,blue,1.1,['j'],[0.5136000000005652],1.0,1.0,1.0,0.5136000000005652,0.5136000000005652,1,1.0
test1,test1_stroop.csv,0,2020-01-01_00h00.00.000,stroop_artemis_2025.2.3,2025.2.4,60.24096386,Win32,75.0,0.0,emotional,negative,118.0,Negx3,0.0,,sin,blue,1.034,['j'],[0.42709999999962633],1.0,1.0,1.0,0.42709999999962633,0.42709999999962633,1,1.0
test1,test1_stroop.csv,0,2020-01-01_00h00.00.000,stroop_artemis_2025.2.3,2025.2.4,60.24096386,Win32,76.0,0.0,emotional,negative,118.0,Negx3,1.0,NegSwitch,inadequate,hotpink,1.184,['l'],[0.6452000000001874],1.0,3.0,3.0,0.6452000000001874,0.6452000000001874,3,1.0
test1,test1_stroop.csv,0,2020-01-01_00h00.00.000,stroop_artemis_2025.2.3,2025.2.4,60.24096386,Win32,77.0,0.0,emotional,negative,119.0,Negx2,1.0,NegSwitch,waste,saddlebrown,1.017,['k'],[0.8024000000003753],1.0,2.0,2.0,0.8024000000003753,0.8024000000003753,2,1.0
test1,test1_stroop.csv,0,2020-01-01_00h00.00.000,stroop_artemis_2025.2.3,2025.2.4,60.24096386,Win32,78.0,0.0,emotional,neutral,120.0,Neutx3_Neg,1.0,,trunk,blue,1.15,['j'],[0.4987000000001842],1.0,1.0,1.0,0.4987000000001842,0.4987000000001842,1,1.0
test1,test1_stroop.csv,0,2020-01-01_00h00.00.000,stroop_artemis_2025.2.3,2025.2.4,60.24096386,Win32,79.0,0.0,emotional,neutral,120.0,Neutx3_Neg,0.0,,direction,blue,1.067,['j'],[0.2900999999996259],1.0,1.0,1.0,0.2900999999996259,0.2900999999996259,1,1.0
test1,test1_stroop.csv,0,2020-01-01_00h00.00.000,stroop_artemis_2025.2.3,2025.2.4,60.24096386,Win32,80.0,0.0,emotional,negative,120.0,Neutx3_Neg,0.0,NeutNegNoSwitch,ridicule,blue,1.117,['j'],[0.3507000000001881],1.0,1.0,1.0,0.3507000000001881,0.3507000000001881,1,1.0
test1,test1_stroop.csv,0,2020-01-01_00h00.00.000,stroop_artemis_2025.2.3,2025.2.4,60.24096386,Win32,81.0,0.0,emotional,neutral,121.0,Neutx2_Neg,1.0,,garage,saddlebrown,1.184,['k'],[0.735400000000368],1.0,2.0,2.0,0.735400000000368,0.735400000000368,2,1.0
test1,test1_stroop.csv,0,2020-01-01_00h00.00.000,stroop_artemis_2025.2.3,2025.2.4,60.24096386,Win32,82.0,0.0,emotional,neutral,121.0,Neutx2_Neg,0.0,,wind,saddlebrown,1.0,['k'],[0.9962999999998203],1.0,2.0,2.0,0.9962999999998203,0.9962999999998203,2,1.0
test1,test1_stroop.csv,0,2020-01-01_00h00.00.000,stroop_artemis_2025.2.3,2025.2.4,60.24096386,Win32,83.0,0.0,emotional,negative,121.0,Neutx2_Neg,0.0,NeutNegNoSwitch,pitiful,saddlebrown,1.05,['k'],[0.4998000000007323],1.0,2.0,2.0,0.4998000000007323,0.4998000000007323,2,1.0
test1,test1_stroop.csv,0,2020-01-01_00h00.00.000,stroop_artemis_2025.2.3,2025.2.4,60.24096386,Win32,84.0,0.0,emotional,neutral,122.0,Neutx3_Neg,1.0,,sharp,hotpink,1.1,['l'],[0.6060999999996284],1.0,3.0,3.0,0.6060999999996284,0.6060999999996284,3,1.0
test1,test1_stroop.csv,0,2020-01-01_00h00.00.000,stroop_artemis_2025.2.3,2025.2.4,60.24096386,Win32,85.0,0.0,emotional,neutral,122.0,Neutx3_Neg,0.0,,rope,hotpink,1.167,['l'],[0.4335000000000093],1.0,3.0,3.0,0.4335000000000093,0.4335000000000093,3,1.0
test1,test1_stroop.csv,0,2020-01-01_00h00.00.000,stroop_artemis_2025.2.3,2025.2.4,60.24096386,Win32,86.0,0.0,emotional,negative,122.0,Neutx3_Neg,0.0,NeutNegNoSwitch,awkward,hotpink,1.017,['l'],[0.5384999999999991],1.0,3.0,3.0,0.5384999999999991,0.5384999999999991,3,1.0
test1,test1_stroop.csv,0,2020-01-01_00h00.00.000,stroop_artemis_2025.2.3,2025.2.4,60.24096386,Win32,87.0,0.0,emotional,positive,123.0,Posx2,1.0,,joke,saddlebrown,1.084,['j'],[0.6230999999996243],1.0,1.0,1.0,0.6230999999996243,0.6230999999996243,2,0.0
test1,test1_stroop.csv,0,2020-01-01_00h00.00.000,stroop_artemis_2025.2.3,2025.2.4,60.24096386,Win32,88.0,0.0,emotional,positive,123.0,Posx2,0.0,PosNoSwitch,cute,saddlebrown,1.034,['j'],[0.4662999999998192],1.0,1.0,1.0,0.4662999999998192,0.4662999999998192,2,0.0
test1,test1_stroop.csv,0,2020-01-01_00h00.00.000,stroop_artemis_2025.2.3,2025.2.4,60.24096386,Win32,89.0,0.0,emotional,negative,124.0,Negx4,1.0,,hostile,blue,1.134,['j'],[0.5790000000000077],1.0,1.0,1.0,0.5790000000000077,0.5790000000000077,1,1.0
test1,test1_stroop.csv,0,2020-01-01_00h00.00.000,stroop_artemis_2025.2.3,2025.2.4,60.24096386,Win32,90.0,0.0,emotional,negative,124.0,Negx4,0.0,,angry,blue,1.2,['j'],[0.5290999999996302],1.0,1.0,1.0,0.5290999999996302,0.5290999999996302,1,1.0
test1,test1_stroop.csv,0,2020-01-01_00h00.00.000,stroop_artemis_2025.2.3,2025.2.4,60.24096386,Win32,91.0,0.0,emotional,negative,124.0,Negx4,0.0,NegNoSwitch,lazy,blue,1.1,['j'],[0.3628000000007603],1.0,1.0,1.0,0.3628000000007603,0.3628000000007603,1,1.0
test1,test1_stroop.csv,0,2020-01-01_00h00.00.000,stroop_artemis_2025.2.3,2025.2.4,60.24096386,Win32,92.0,0.0,emotional,neutral,125.0,Neutx5_Neg,1.0,,urgency,hotpink,1.184,['l'],[0.5349999999999966],1.0,3.0,3.0,0.5349999999999966,0.5349999999999966,3,1.0
test1,test1_stroop.csv,0,2020-01-01_00h00.00.000,stroop_artemis_2025.2.3,2025.2.4,60.24096386,Win32,93.0,0.0,emotional,neutral,125.0,Neutx5_Neg,0.0,,shout,hotpink,1.2,['l'],[0.6845999999996195],1.0,3.0,3.0,0.6845999999996195,0.6845999999996195,3,1.0
test1,test1_stroop.csv,0,2020-01-01_00h00.00.000,stroop_artemis_2025.2.3,2025.2.4,60.24096386,Win32,94.0,0.0,emotional,negative,125.0,Neutx5_Neg,0.0,NeutNegNoSwitch,foolish,hotpink,1.05,,,0.0,,,,,3,
test1,test1_stroop.csv,0,2020-01-01_00h00.00.000,stroop_artemis_2025.2.3,2025.2.4,60.24096386,Win32,95.0,0.0,emotional,positive,126.0,Posx2,1.0,,friendship,blue,1.084,"['l', 'j']","[0.146299999999826, 0.6154999999999973]",2.0,3.0,1.0,0.146299999999826,0.6154999999999973,1,0.0
test1,test1_stroop.csv,0,2020-01-01_00h00.00.000,stroop_artemis_2025.2.3,2025.2.4,60.24096386,Win32,96.0,0.0,emotional,positive,126.0,Posx2,0.0,PosNoSwitch,brave,blue,1.117,['j'],[0.43549999999999045],1.0,1.0,1.0,0.43549999999999045,0.43549999999999045,1,1.0
test1,test1_stroop.csv,0,2020-01-01_00h00.00.000,stroop_artemis_2025.2.3,2025.2.4,60.24096386,Win32,97.0,0.0,emotional,neutral,127.0,Neutx2_Neg,1.0,,vase,hotpink,1.034,['l'],[0.4878999999994562],1.0,3.0,3.0,0.4878999999994562,0.4878999999994562,3,1.0
test1,test1_stroop.csv,0,2020-01-01_00h00.00.000,stroop_artemis_2025.2.3,2025.2.4,60.24096386,Win32,98.0,0.0,emotional,neutral,127.0,Neutx2_Neg,0.0,,tiny,hotpink,1.15,['l'],[1.0061000000005436],1.0,3.0,3.0,1.0061000000005436,1.0061000000005436,3,1.0
test1,test1_stroop.csv,0,2020-01-01_00h00.00.000,stroop_artemis_2025.2.3,2025.2.4,60.24096386,Win32,99.0,0.0,emotional,negative,127.0,Neutx2_Neg,0.0,NeutNegNoSwitch,guilt,hotpink,1.017,['l'],[1.0276000000005467],1.0,3.0,3.0,1.0276000000005467,1.0276000000005467,3,1.0
test1,test1_stroop.csv,0,2020-01-01_00h00.00.000,stroop_artemis_2025.2.3,2025.2.4,60.24096386,Win32,100.0,0.0,emotional,neutral,128.0,Neutx2_Pos,1.0,,wheat,saddlebrown,1.067,,,0.0,,,,,2,
test1,test1_stroop.csv,0,2020-01-01_00h00.00.000,stroop_artemis_2025.2.3,2025.2.4,60.24096386,Win32,101.0,0.0,emotional,neutral,128.0,Neutx2_Pos,0.0,,iceberg,saddlebrown,1.167,"['k', 'k']","[0.25709999999963884, 0.570099999999627]",2.0,2.0,2.0,0.25709999999963884,0.570099999999627,2,1.0
test1,test1_stroop.csv,0,2020-01-01_00h00.00.000,stroop_artemis_2025.2.3,2025.2.4,60.24096386,Win32,102.0,0.0,emotional,positive,128.0,Neutx2_Pos,0.0,NeutPosNoSwitch,secure,saddlebrown,1.134,['k'],[0.3809000000003664],1.0,2.0,2.0,0.3809000000003664,0.3809000000003664,2,1.0
test1,test1_stroop.csv,0,2020-01-01_00h00.00.000,stroop_artemis_2025.2.3,2025.2.4,60.24096386,Win32,103.0,0.0,emotional,neutral,129.0,Neutx1_Pos,1.0,,motor,hotpink,1.0,['l'],[0.5379999999999825],1.0,3.0,3.0,0.5379999999999825,0.5379999999999825,3,1.0
test1,test1_stroop.csv,0,2020-01-01_00h00.00.000,stroop_artemis_2025.2.3,2025.2.4,60.24096386,Win32,104.0,0.0,emotional,positive,129.0,Neutx1_Pos,0.0,NeutPosNoSwitch,noble,hotpink,1.134,['l'],[0.5400999999996259],1.0,3.0,3.0,0.5400999999996259,0.5400999999996259,3,1.0
test1,test1_stroop.csv,0,2020-01-01_00h00.00.000,stroop_artemis_2025.2.3,2025.2.4,60.24096386,Win32,105.0,0.0,emotional,neutral,130.0,Neutx4_Neg,1.0,,sidewalk,saddlebrown,1.2,['k'],[0.5714000000003807],1.0,2.0,2.0,0.5714000000003807,0.5714000000003807,2,1.0
test1,test1_stroop.csv,0,2020-01-01_00h00.00.000,stroop_artemis_2025.2.3,2025.2.4,60.24096386,Win32,106.0,0.0,emotional,neutral,130.0,Neutx4_Neg,0.0,,decorate,saddlebrown,1.084,['k'],[0.6972999999998137],1.0,2.0,2.0,0.6972999999998137,0.6972999999998137,2,1.0
test1,test1_stroop.csv,0,2020-01-01_00h00.00.000,stroop_artemis_2025.2.3,2025.2.4,60.24096386,Win32,107.0,0.0,emotional,negative,130.0,Neutx4_Neg,0.0,NeutNegNoSwitch,coffin,saddlebrown,1.184,['k'],[0.45429999999981874],1.0,2.0,2.0,0.45429999999981874,0.45429999999981874,2,1.0
test1,test1_stroop.csv,0,2020-01-01_00h00.00.000,stroop_artemis_2025.2.3,2025.2.4,60.24096386,Win32,108.0,0.0,emotional,neutral,131.0,Neutx2_Neg,1.0,,fryer,hotpink,1.0,['l'],[0.5297000000001901],1.0,3.0,3.0,0.5297000000001901,0.5297000000001901,3,1.0
test1,test1_stroop.csv,0,2020-01-01_00h00.00.000,stroop_artemis_2025.2.3,2025.2.4,60.24096386,Win32,109.0,0.0,emotional,neutral,131.0,Neutx2_Neg,0.0,,braid,hotpink,1.017,['l'],[0.9397999999997921],1.0,3.0,3.0,0.9397999999997921,0.9397999999997921,3,1.0
test1,test1_stroop.csv,0,2020-01-01_00h00.00.000,stroop_artemis_2025.2.3,2025.2.4,60.24096386,Win32,110.0,0.0,emotional,negative,131.0,Neutx2_Neg,1.0,NeutNegSwitch,evil,saddlebrown,1.15,['k'],[0.6998999999994453],1.0,2.0,2.0,0.6998999999994453,0.6998999999994453,2,1.0
test1,test1_stroop.csv,0,2020-01-01_00h00.00.000,stroop_artemis_2025.2.3,2025.2.4,60.24096386,Win32,111.0,0.0,emotional,positive,132.0,Posx4,1.0,,pleasant,blue,1.1,['j'],[0.5527999999998201],1.0,1.0,1.0,0.5527999999998201,0.5527999999998201,1,1.0
test1,test1_stroop.csv,0,2020-01-01_00h00.00.000,stroop_artemis_2025.2.3,2025.2.4,60.24096386,Win32,112.0,0.0,emotional,positive,132.0,Posx4,0.0,,lucky,blue,1.167,['j'],[0.2672000000002015],1.0,1.0,1.0,0.2672000000002015,0.2672000000002015,1,1.0
test1,test1_stroop.csv,0,2020-01-01_00h00.00.000,stroop_artemis_2025.2.3,2025.2.4,60.24096386,Win32,113.0,0.0,emotional,positive,132.0,Posx4,0.0,PosNoSwitch,service,blue,1.05,['j'],[0.32799999999997453],1.0,1.0,1.0,0.32799999999997453,0.32799999999997453,1,1.0
test1,test1_stroop.csv,0,2020-01-01_00h00.00.000,stroop_artemis_2025.2.3,2025.2.4,60.24096386,Win32,114.0,0.0,emotional,neutral,133.0,Neutx2_Pos,1.0,,other,hotpink,1.067,['l'],[0.4738000000007503],1.0,3.0,3.0,0.4738000000007503,0.4738000000007503,3,1.0
test1,test1_stroop.csv,0,2020-01-01_00h00.00.000,stroop_artemis_2025.2.3,2025.2.4,60.24096386,Win32,115.0,0.0,emotional,neutral,133.0,Neutx2_Pos,0.0,,paper,hotpink,1.117,['l'],[0.5952000000002045],1.0,3.0,3.0,0.5952000000002045,0.5952000000002045,3,1.0
test1,test1_stroop.csv,0,2020-01-01_00h00.00.000,stroop_artemis_2025.2.3,2025.2.4,60.24096386,Win32,116.0,0.0,emotional,positive,133.0,Neutx2_Pos,0.0,NeutPosNoSwitch,wealth,hotpink,1.034,['l'],[0.4687000000001831],1.0,3.0,3.0,0.4687000000001831,0.4687000000001831,3,1.0
test1,test1_stroop.csv,0,2020-01-01_00h00.00.000,stroop_artemis_2025.2.3,2025.2.4,60.24096386,Win32,117.0,0.0,emotional,neutral,134.0,Neutx4_Pos,1.0,,plate,blue,1.017,['j'],[0.9825000000000159],1.0,1.0,1.0,0.9825000000000159,0.9825000000000159,1,1.0
test1,test1_stroop.csv,0,2020-01-01_00h00.00.000,stroop_artemis_2025.2.3,2025.2.4,60.24096386,Win32,118.0,0.0,emotional,neutral,134.0,Neutx4_Pos,0.0,,devour,blue,1.117,['j'],[0.44570000000018695],1.0,1.0,1.0,0.44570000000018695,0.44570000000018695,1,1.0
test1,test1_stroop.csv,0,2020-01-01_00h00.00.000,stroop_artemis_2025.2.3,2025.2.4,60.24096386,Win32,119.0,0.0,emotional,positive,134.0,Neutx4_Pos,0.0,NeutPosNoSwitch,love,blue,1.167,['j'],[0.5467999999998199],1.0,1.0,1.0,0.5467999999998199,0.5467999999998199,1,1.0
test1,test1_stroop.csv,0,2020-01-01_00h00.00.000,stroop_artemis_2025.2.3,2025.2.4,60.24096386,Win32,120.0,0.0,emotional,neutral,135.0,Neutx2_Pos,1.0,,verbal,saddlebrown,1.1,['l'],[0.5968000000007407],1.0,3.0,3.0,0.5968000000007407,0.5968000000007407,2,0.0
test1,test1_stroop.csv,0,2020-01-01_00h00.00.000,stroop_artemis_2025.2.3,2025.2.4,60.24096386,Win32,121.0,0.0,emotional,neutral,135.0,Neutx2_Pos,0.0,,freeway,saddlebrown,1.034,['k'],[0.7069999999999936],1.0,2.0,2.0,0.7069999999999936,0.7069999999999936,2,1.0
test1,test1_stroop.csv,0,2020-01-01_00h00.00.000,stroop_artemis_2025.2.3,2025.2.4,60.24096386,Win32,122.0,0.0,emotional,positive,135.0,Neutx2_Pos,1.0,NeutPosSwitch,treasure,hotpink,1.15,['l'],[0.4964999999999975],1.0,3.0,3.0,0.4964999999999975,0.4964999999999975,3,1.0
test1,test1_stroop.csv,0,2020-01-01_00h00.00.000,stroop_artemis_2025.2.3,2025.2.4,60.24096386,Win32,123.0,0.0,emotional,neutral,136.0,Neutx5_Pos,1.0,,stomach,blue,1.184,['j'],[0.4847999999998365],1.0,1.0,1.0,0.4847999999998365,0.4847999999998365,1,1.0
test1,test1_stroop.csv,0,2020-01-01_00h00.00.000,stroop_artemis_2025.2.3,2025.2.4,60.24096386,Win32,124.0,0.0,emotional,neutral,136.0,Neutx5_Pos,0.0,,measure,blue,1.05,['k'],[0.7151000000005752],1.0,2.0,2.0,0.7151000000005752,0.7151000000005752,1,0.0
test1,test1_stroop.csv,0,2020-01-01_00h00.00.000,stroop_artemis_2025.2.3,2025.2.4,60.24096386,Win32,125.0,0.0,emotional,positive,136.0,Neutx5_Pos,1.0,NeutPosSwitch,generous,hotpink,1.067,['l'],[0.570999999999998],1.0,3.0,3.0,0.570999999999998,0.570999999999998,3,1.0
test1,test1_stroop.csv,0,2020-01-01_00h00.00.000,stroop_artemis_2025.2.3,2025.2.4,60.24096386,Win32,126.0,0.0,emotional,neutral,137.0,Neutx5_Pos,1.0,,spinner,saddlebrown,1.084,['k'],[0.8525999999996259],1.0,2.0,2.0,0.8525999999996259,0.8525999999996259,2,1.0
test1,test1_stroop.csv,0,2020-01-01_00h00.00.000,stroop_artemis_2025.2.3,2025.2.4,60.24096386,Win32,127.0,0.0,emotional,neutral,137.0,Neutx5_Pos,0.0,,display,saddlebrown,1.0,['k'],[0.5113999999994405],1.0,2.0,2.0,0.5113999999994405,0.5113999999994405,2,1.0
test1,test1_stroop.csv,0,2020-01-01_00h00.00.000,stroop_artemis_2025.2.3,2025.2.4,60.24096386,Win32,128.0,0.0,emotional,positive,137.0,Neutx5_Pos,0.0,NeutPosNoSwitch,talented,saddlebrown,1.2,['k'],[0.4616999999992686],1.0,2.0,2.0,0.4616999999992686,0.4616999999992686,2,1.0
test1,test1_stroop.csv,0,2020-01-01_00h00.00.000,stroop_artemis_2025.2.3,2025.2.4,60.24096386,Win32,129.0,0.0,emotional,positive,138.0,Posx4,0.0,,hero,saddlebrown,1.134,['k'],[0.0005000000000165983],1.0,2.0,2.0,0.0005000000000165983,0.0005000000000165983,2,1.0
test1,test1_stroop.csv,0,2020-01-01_00h00.00.000,stroop_artemis_2025.2.3,2025.2.4,60.24096386,Win32,130.0,0.0,emotional,positive,138.0,Posx4,1.0,PosSwitch,loyal,blue,1.084,['j'],[0.4652999999998144],1.0,1.0,1.0,0.4652999999998144,0.4652999999998144,1,1.0
test1,test1_stroop.csv,0,2020-01-01_00h00.00.000,stroop_artemis_2025.2.3,2025.2.4,60.24096386,Win32,0.0,1.0,classic,neutral,44.0,NI,,,XXX,blue,1.0,['j'],[0.9542000000001849],1.0,1.0,1.0,0.9542000000001849,0.9542000000001849,1,1.0
test1,test1_stroop.csv,0,2020-01-01_00h00.00.000,stroop_artemis_2025.2.3,2025.2.4,60.24096386,Win32,1.0,1.0,classic,incongruent,44.0,NI,,,PINK,saddlebrown,1.017,['l'],[0.9117000000001951],1.0,3.0,3.0,0.9117000000001951,0.9117000000001951,2,0.0
test1,test1_stroop.csv,0,2020-01-01_00h00.00.000,stroop_artemis_2025.2.3,2025.2.4,60.24096386,Win32,2.0,1.0,classic,congruent,45.0,C6I,,,BLUE,blue,1.2,['j'],[0.9403000000007182],1.0,1.0,1.0,0.9403000000007182,0.9403000000007182,1,1.0
test1,test1_stroop.csv,0,2020-01-01_00h00.00.000,stroop_artemis_2025.2.3,2025.2.4,60.24096386,Win32,3.0,1.0,classic,congruent,45.0,C6I,,,BROWN,saddlebrown,1.034,['k'],[0.38109999999963406],1.0,2.0,2.0,0.38109999999963406,0.38109999999963406,2,1.0
test1,test1_stroop.csv,0,2020-01-01_00h00.00.000,stroop_artemis_2025.2.3,2025.2.4,60.24096386,Win32,4.0,1.0,classic,congruent,45.0,C6I,,,PINK,hotpink,1.184,['l'],[0.48939999999942074],1.0,3.0,3.0,0.48939999999942074,0.48939999999942074,3,1.0
test1,test1_stroop.csv,0,2020-01-01_00h00.00.000,stroop_artemis_2025.2.3,2025.2.4,60.24096386,Win32,5.0,1.0,classic,congruent,45.0,C6I,,,BROWN,saddlebrown,1.05,['k'],[0.49610000000055265],1.0,2.0,2.0,0.49610000000055265,0.49610000000055265,2,1.0
test1,test1_stroop.csv,0,2020-01-01_00h00.00.000,stroop_artemis_2025.2.3,2025.2.4,60.24096386,Win32,6.0,1.0,classic,congruent,45.0,C6I,,,BLUE,blue,1.067,['j'],[0.5117000000001894],1.0,1.0,1.0,0.5117000000001894,0.5117000000001894,1,1.0
test1,test1_stroop.csv,0,2020-01-01_00h00.00.000,stroop_artemis_2025.2.3,2025.2.4,60.24096386,Win32,7.0,1.0,classic,congruent,45.0,C6I,,,PINK,hotpink,1.117,['l'],[0.5247999999998285],1.0,3.0,3.0,0.5247999999998285,0.5247999999998285,3,1.0
test1,test1_stroop.csv,0,2020-01-01_00h00.00.000,stroop_artemis_2025.2.3,2025.2.4,60.24096386,Win32,8.0,1.0,classic,incongruent,45.0,C6I,,,BLUE,hotpink,1.167,['l'],[0.9115999999996518],1.0,3.0,3.0,0.9115999999996518,0.9115999999996518,3,1.0
test1,test1_stroop.csv,0,2020-01-01_00h00.00.000,stroop_artemis_2025.2.3,2025.2.4,60.24096386,Win32,9.0,1.0,classic,neutral,46.0,N3I,,,XXXX,hotpink,1.1,['l'],[0.5270999999996491],1.0,3.0,3.0,0.5270999999996491,0.5270999999996491,3,1.0
test1,test1_stroop.csv,0,2020-01-01_00h00.00.000,stroop_artemis_2025.2.3,2025.2.4,60.24096386,Win32,10.0,1.0,classic,neutral,46.0,N3I,,,XXXXX,saddlebrown,1.134,['k'],[0.555499999999995],1.0,2.0,2.0,0.555499999999995,0.555499999999995,2,1.0
test1,test1_stroop.csv,0,2020-01-01_00h00.00.000,stroop_artemis_2025.2.3,2025.2.4,60.24096386,Win32,11.0,1.0,classic,neutral,46.0,N3I,,,XXXX,hotpink,1.15,['l'],[0.703599999999625],1.0,3.0,3.0,0.703599999999625,0.703599999999625,3,1.0
test1,test1_stroop.csv,0,2020-01-01_00h00.00.000,stroop_artemis_2025.2.3,2025.2.4,60.24096386,Win32,12.0,1.0,classic,incongruent,46.0,N3I,,,PINK,blue,1.05,['j'],[0.7956000000005758],1.0,1.0,1.0,0.7956000000005758,0.7956000000005758,1,1.0
test1,test1_stroop.csv,0,2020-01-01_00h00.00.000,stroop_artemis_2025.2.3,2025.2.4,60.24096386,Win32,13.0,1.0,classic,congruent,47.0,C3I,,,PINK,hotpink,1.084,['l'],[0.5717999999998256],1.0,3.0,3.0,0.5717999999998256,0.5717999999998256,3,1.0
test1,test1_stroop.csv,0,2020-01-01_00h00.00.000,stroop_artemis_2025.2.3,2025.2.4,60.24096386,Win32,14.0,1.0,classic,congruent,47.0,C3I,,,BROWN,saddlebrown,1.134,['k'],[0.4923999999994635],1.0,2.0,2.0,0.4923999999994635,0.4923999999994635,2,1.0
test1,test1_stroop.csv,0,2020-01-01_00h00.00.000,stroop_artemis_2025.2.3,2025.2.4,60.24096386,Win32,15.0,1.0,classic,congruent,47.0,C3I,,,BLUE,blue,1.117,['j'],[0.46860000000057767],1.0,1.0,1.0,0.46860000000057767,0.46860000000057767,1,1.0
test1,test1_stroop.csv,0,2020-01-01_00h00.00.000,stroop_artemis_2025.2.3,2025.2.4,60.24096386,Win32,16.0,1.0,classic,incongruent,47.0,C3I,,,BROWN,hotpink,1.1,['l'],[0.9052999999998406],1.0,3.0,3.0,0.9052999999998406,0.9052999999998406,3,1.0
test1,test1_stroop.csv,0,2020-01-01_00h00.00.000,stroop_artemis_2025.2.3,2025.2.4,60.24096386,Win32,17.0,1.0,classic,congruent,48.0,C7I,,,BLUE,blue,1.184,['j'],[0.7102000000001567],1.0,1.0,1.0,0.7102000000001567,0.7102000000001567,1,1.0
test1,test1_stroop.csv,0,2020-01-01_00h00.00.000,stroop_artemis_2025.2.3,2025.2.4,60.24096386,Win32,18.0,1.0,classic,congruent,48.0,C7I,,,PINK,hotpink,1.0,['l'],[0.8149999999999977],1.0,3.0,3.0,0.8149999999999977,0.8149999999999977,3,1.0
test1,test1_stroop.csv,0,2020-01-01_00h00.00.000,stroop_artemis_2025.2.3,2025.2.4,60.24096386,Win32,19.0,1.0,classic,congruent,48.0,C7I,,,BROWN,saddlebrown,1.167,['k'],[0.5900000000000318],1.0,2.0,2.0,0.5900000000000318,0.5900000000000318,2,1.0
test1,test1_stroop.csv,0,2020-01-01_00h00.00.000,stroop_artemis_2025.2.3,2025.2.4,60.24096386,Win32,20.0,1.0,classic,congruent,48.0,C7I,,,BLUE,blue,1.034,['j'],[0.45919999999927086],1.0,1.0,1.0,0.45919999999927086,0.45919999999927086,1,1.0
test1,test1_stroop.csv,0,2020-01-01_00h00.00.000,stroop_artemis_2025.2.3,2025.2.4,60.24096386,Win32,21.0,1.0,classic,congruent,48.0,C7I,,,BROWN,saddlebrown,1.017,['k'],[0.5747999999998115],1.0,2.0,2.0,0.5747999999998115,0.5747999999998115,2,1.0
test1,test1_stroop.csv,0,2020-01-01_00h00.00.000,stroop_artemis_2025.2.3,2025.2.4,60.24096386,Win32,22.0,1.0,classic,congruent,48.0,C7I,,,PINK,hotpink,1.067,['l'],[0.5458000000007814],1.0,3.0,3.0,0.5458000000007814,0.5458000000007814,3,1.0
test1,test1_stroop.csv,0,2020-01-01_00h00.00.000,stroop_artemis_2025.2.3,2025.2.4,60.24096386,Win32,23.0,1.0,classic,congruent,48.0,C7I,,,BROWN,saddlebrown,1.2,['k'],[0.5042000000001963],1.0,2.0,2.0,0.5042000000001963,0.5042000000001963,2,1.0
test1,test1_stroop.csv,0,2020-01-01_00h00.00.000,stroop_artemis_2025.2.3,2025.2.4,60.24096386,Win32,24.0,1.0,classic,incongruent,48.0,C7I,,,BROWN,blue,1.15,['k'],[0.415600000000552],1.0,2.0,2.0,0.415600000000552,0.415600000000552,1,0.0
test1,test1_stroop.csv,0,2020-01-01_00h00.00.000,stroop_artemis_2025.2.3,2025.2.4,60.24096386,Win32,25.0,1.0,classic,neutral,49.0,NI,,,XXX,blue,1.167,['j'],[0.5531999999992081],1.0,1.0,1.0,0.5531999999992081,0.5531999999992081,1,1.0
test1,test1_stroop.csv,0,2020-01-01_00h00.00.000,stroop_artemis_2025.2.3,2025.2.4,60.24096386,Win32,26.0,1.0,classic,incongruent,49.0,NI,,,BLUE,saddlebrown,1.15,['k'],[0.5537999999998533],1.0,2.0,2.0,0.5537999999998533,0.5537999999998533,2,1.0
test1,test1_stroop.csv,0,2020-01-01_00h00.00.000,stroop_artemis_2025.2.3,2025.2.4,60.24096386,Win32,27.0,1.0,classic,congruent,50.0,C2I,,,BLUE,blue,1.017,['j'],[0.7007999999997878],1.0,1.0,1.0,0.7007999999997878,0.7007999999997878,1,1.0
test1,test1_stroop.csv,0,2020-01-01_00h00.00.000,stroop_artemis_2025.2.3,2025.2.4,60.24096386,Win32,28.0,1.0,classic,congruent,50.0,C2I,,,PINK,hotpink,1.184,['l'],[0.5326000000005706],1.0,3.0,3.0,0.5326000000005706,0.5326000000005706,3,1.0
test1,test1_stroop.csv,0,2020-01-01_00h00.00.000,stroop_artemis_2025.2.3,2025.2.4,60.24096386,Win32,29.0,1.0,classic,incongruent,50.0,C2I,,,BROWN,blue,1.2,['j'],[0.8613000000007105],1.0,1.0,1.0,0.8613000000007105,0.8613000000007105,1,1.0
test1,test1_stroop.csv,0,2020-01-01_00h00.00.000,stroop_artemis_2025.2.3,2025.2.4,60.24096386,Win32,30.0,1.0,classic,congruent,51.0,CI,,,PINK,hotpink,1.117,['l'],[0.513100000000577],1.0,3.0,3.0,0.513100000000577,0.513100000000577,3,1.0
test1,test1_stroop.csv,0,2020-01-01_00h00.00.000,stroop_artemis_2025.2.3,2025.2.4,60.24096386,Win32,31.0,1.0,classic,incongruent,51.0,CI,,,PINK,blue,1.134,['l'],[0.5442000000002167],1.0,3.0,3.0,0.5442000000002167,0.5442000000002167,1,0.0
test1,test1_stroop.csv,0,2020-01-01_00h00.00.000,stroop_artemis_2025.2.3,2025.2.4,60.24096386,Win32,32.0,1.0,classic,congruent,52.0,C3I,,,BLUE,blue,1.067,['j'],[0.4497000000001776],1.0,1.0,1.0,0.4497000000001776,0.4497000000001776,1,1.0
test1,test1_stroop.csv,0,2020-01-01_00h00.00.000,stroop_artemis_2025.2.3,2025.2.4,60.24096386,Win32,33.0,1.0,classic,congruent,52.0,C3I,,,BROWN,saddlebrown,1.034,['k'],[0.5944000000003484],1.0,2.0,2.0,0.5944000000003484,0.5944000000003484,2,1.0
test1,test1_stroop.csv,0,2020-01-01_00h00.00.000,stroop_artemis_2025.2.3,2025.2.4,60.24096386,Win32,34.0,1.0,classic,congruent,52.0,C3I,,,BLUE,blue,1.0,['j'],[0.6608000000007905],1.0,1.0,1.0,0.6608000000007905,0.6608000000007905,1,1.0
test1,test1_stroop.csv,0,2020-01-01_00h00.00.000,stroop_artemis_2025.2.3,2025.2.4,60.24096386,Win32,35.0,1.0,classic,incongruent,52.0,C3I,,,BLUE,hotpink,1.05,['l'],[0.7792000000001735],1.0,3.0,3.0,0.7792000000001735,0.7792000000001735,3,1.0
test1,test1_stroop.csv,0,2020-01-01_00h00.00.000,stroop_artemis_2025.2.3,2025.2.4,60.24096386,Win32,36.0,1.0,classic,congruent,53.0,C2I,,,BROWN,saddlebrown,1.1,['k'],[0.6279999999999859],1.0,2.0,2.0,0.6279999999999859,0.6279999999999859,2,1.0
test1,test1_stroop.csv,0,2020-01-01_00h00.00.000,stroop_artemis_2025.2.3,2025.2.4,60.24096386,Win32,37.0,1.0,classic,congruent,53.0,C2I,,,PINK,hotpink,1.084,['l'],[0.6028999999994085],1.0,3.0,3.0,0.6028999999994085,0.6028999999994085,3,1.0
test1,test1_stroop.csv,0,2020-01-01_00h00.00.000,stroop_artemis_2025.2.3,2025.2.4,60.24096386,Win32,38.0,1.0,classic,incongruent,53.0,C2I,,,BROWN,hotpink,1.017,['l'],[0.4283999999994421],1.0,3.0,3.0,0.4283999999994421,0.4283999999994421,3,1.0
test1,test1_stroop.csv,0,2020-01-01_00h00.00.000,stroop_artemis_2025.2.3,2025.2.4,60.24096386,Win32,39.0,1.0,classic,incongruent,54.0,I2,,,PINK,saddlebrown,1.084,['k'],[0.846700000000169],1.0,2.0,2.0,0.846700000000169,0.846700000000169,2,1.0
test1,test1_stroop.csv,0,2020-01-01_00h00.00.000,stroop_artemis_2025.2.3,2025.2.4,60.24096386,Win32,40.0,1.0,classic,congruent,55.0,C4I,,,PINK,hotpink,1.167,['l'],[0.6320999999996388],1.0,3.0,3.0,0.6320999999996388,0.6320999999996388,3,1.0
test1,test1_stroop.csv,0,2020-01-01_00h00.00.000,stroop_artemis_2025.2.3,2025.2.4,60.24096386,Win32,41.0,1.0,classic,congruent,55.0,C4I,,,BROWN,saddlebrown,1.184,['k'],[0.548200000000179],1.0,2.0,2.0,0.548200000000179,0.548200000000179,2,1.0
test1,test1_stroop.csv,0,2020-01-01_00h00.00.000,stroop_artemis_2025.2.3,2025.2.4,60.24096386,Win32,42.0,1.0,classic,congruent,55.0,C4I,,,BLUE,blue,1.034,['j'],[0.6102999999998246],1.0,1.0,1.0,0.6102999999998246,0.6102999999998246,1,1.0
test1,test1_stroop.csv,0,2020-01-01_00h00.00.000,stroop_artemis_2025.2.3,2025.2.4,60.24096386,Win32,43.0,1.0,classic,congruent,55.0,C4I,,,PINK,hotpink,1.05,['l'],[0.5688999999994735],1.0,3.0,3.0,0.5688999999994735,0.5688999999994735,3,1.0
test1,test1_stroop.csv,0,2020-01-01_00h00.00.000,stroop_artemis_2025.2.3,2025.2.4,60.24096386,Win32,44.0,1.0,classic,incongruent,55.0,C4I,,,BLUE,saddlebrown,1.0,,,0.0,,,,,2,
test1,test1_stroop.csv,0,2020-01-01_00h00.00.000,stroop_artemis_2025.2.3,2025.2.4,60.24096386,Win32,45.0,1.0,classic,congruent,56.0,C2I,,,BLUE,blue,1.15,"['k', 'j']","[0.07730000000077553, 0.7510000000000332]",2.0,2.0,1.0,0.07730000000077553,0.7510000000000332,1,0.0
test1,test1_stroop.csv,0,2020-01-01_00h00.00.000,stroop_artemis_2025.2.3,2025.2.4,60.24096386,Win32,46.0,1.0,classic,congruent,56.0,C2I,,,BROWN,saddlebrown,1.1,['k'],[0.5156000000005747],1.0,2.0,2.0,0.5156000000005747,0.5156000000005747,2,1.0
test1,test1_stroop.csv,0,2020-01-01_00h00.00.000,stroop_artemis_2025.2.3,2025.2.4,60.24096386,Win32,47.0,1.0,classic,incongruent,56.0,C2I,,,PINK,saddlebrown,1.117,['l'],[0.49529999999981555],1.0,3.0,3.0,0.49529999999981555,0.49529999999981555,2,0.0
test1,test1_stroop.csv,0,2020-01-01_00h00.00.000,stroop_artemis_2025.2.3,2025.2.4,60.24096386,Win32,48.0,1.0,classic,neutral,57.0,NI,,,XXXXX,saddlebrown,1.067,['k'],[0.5470999999996593],1.0,2.0,2.0,0.5470999999996593,0.5470999999996593,2,1.0
test1,test1_stroop.csv,0,2020-01-01_00h00.00.000,stroop_artemis_2025.2.3,2025.2.4,60.24096386,Win32,49.0,1.0,classic,incongruent,57.0,NI,,,BROWN,hotpink,1.134,['l'],[0.43220000000019354],1.0,3.0,3.0,0.43220000000019354,0.43220000000019354,3,1.0
test1,test1_stroop.csv,0,2020-01-01_00h00.00.000,stroop_artemis_2025.2.3,2025.2.4,60.24096386,Win32,50.0,1.0,classic,congruent,58.0,C3I,,,BROWN,saddlebrown,1.2,['k'],[0.5648999999993976],1.0,2.0,2.0,0.5648999999993976,0.5648999999993976,2,1.0
test1,test1_stroop.csv,0,2020-01-01_00h00.00.000,stroop_artemis_2025.2.3,2025.2.4,60.24096386,Win32,51.0,1.0,classic,congruent,58.0,C3I,,,BLUE,blue,1.0,['j'],[0.5455000000000041],1.0,1.0,1.0,0.5455000000000041,0.5455000000000041,1,1.0
test1,test1_stroop.csv,0,2020-01-01_00h00.00.000,stroop_artemis_2025.2.3,2025.2.4,60.24096386,Win32,52.0,1.0,classic,congruent,58.0,C3I,,,PINK,hotpink,1.067,['l'],[0.7102999999998474],1.0,3.0,3.0,0.7102999999998474,0.7102999999998474,3,1.0
test1,test1_stroop.csv,0,2020-01-01_00h00.00.000,stroop_artemis_2025.2.3,2025.2.4,60.24096386,Win32,53.0,1.0,classic,incongruent,58.0,C3I,,,BROWN,blue,1.034,['j'],[0.5849000000003457],1.0,1.0,1.0,0.5849000000003457,0.5849000000003457,1,1.0
test1,test1_stroop.csv,0,2020-01-01_00h00.00.000,stroop_artemis_2025.2.3,2025.2.4,60.24096386,Win32,54.0,1.0,classic,congruent,59.0,C6I,,,PINK,hotpink,1.117,['l'],[0.4970000000000141],1.0,3.0,3.0,0.4970000000000141,0.4970000000000141,3,1.0
test1,test1_stroop.csv,0,2020-01-01_00h00.00.000,stroop_artemis_2025.2.3,2025.2.4,60.24096386,Win32,55.0,1.0,classic,congruent,59.0,C6I,,,BROWN,saddlebrown,1.15,['k'],[0.5324999999999704],1.0,2.0,2.0,0.5324999999999704,0.5324999999999704,2,1.0
test1,test1_stroop.csv,0,2020-01-01_00h00.00.000,stroop_artemis_2025.2.3,2025.2.4,60.24096386,Win32,56.0,1.0,classic,congruent,59.0,C6I,,,BLUE,blue,1.084,['j'],[0.8144000000003757],1.0,1.0,1.0,0.8144000000003757,0.8144000000003757,1,1.0
test1,test1_stroop.csv,0,2020-01-01_00h00.00.000,stroop_artemis_2025.2.3,2025.2.4,60.24096386,Win32,57.0,1.0,classic,congruent,59.0,C6I,,,BROWN,saddlebrown,1.2,['k'],[0.4713999999994485],1.0,2.0,2.0,0.4713999999994485,0.4713999999994485,2,1.0
test1,test1_stroop.csv,0,2020-01-01_00h00.00.000,stroop_artemis_2025.2.3,2025.2.4,60.24096386,Win32,58.0,1.0,classic,congruent,59.0,C6I,,,PINK,hotpink,1.05,['l'],[0.40170000000023265],1.0,3.0,3.0,0.40170000000023265,0.40170000000023265,3,1.0
test1,test1_stroop.csv,0,2020-01-01_00h00.00.000,stroop_artemis_2025.2.3,2025.2.4,60.24096386,Win32,59.0,1.0,classic,congruent,59.0,C6I,,,BLUE,blue,1.167,['j'],[0.5792000000001849],1.0,1.0,1.0,0.5792000000001849,0.5792000000001849,1,1.0
test1,test1_stroop.csv,0,2020-01-01_00h00.00.000,stroop_artemis_2025.2.3,2025.2.4,60.24096386,Win32,60.0,1.0,classic,incongruent,59.0,C6I,,,BLUE,saddlebrown,1.134,['k'],[0.80600000000004],1.0,2.0,2.0,0.80600000000004,0.80600000000004,2,1.0
test1,test1_stroop.csv,0,2020-01-01_00h00.00.000,stroop_artemis_2025.2.3,2025.2.4,60.24096386,Win32,61.0,1.0,classic,incongruent,60.0,I4,,,PINK,blue,1.1,['j'],[0.5964999999999918],1.0,1.0,1.0,0.5964999999999918,0.5964999999999918,1,1.0
test1,test1_stroop.csv,0,2020-01-01_00h00.00.000,stroop_artemis_2025.2.3,2025.2.4,60.24096386,Win32,62.0,1.0,classic,incongruent,60.0,I4,,,BLUE,hotpink,1.184,['j'],[0.9601999999992472],1.0,1.0,1.0,0.9601999999992472,0.9601999999992472,3,0.0
test1,test1_stroop.csv,0,2020-01-01_00h00.00.000,stroop_artemis_2025.2.3,2025.2.4,60.24096386,Win32,63.0,1.0,classic,incongruent,60.0,I4,,,BROWN,hotpink,1.017,['k'],[0.8067000000001485],1.0,2.0,2.0,0.8067000000001485,0.8067000000001485,3,0.0
test1,test1_stroop.csv,0,2020-01-01_00h00.00.000,stroop_artemis_2025.2.3,2025.2.4,60.24096386,Win32,64.0,1.0,classic,congruent,61.0,C5I,,,BROWN,saddlebrown,1.067,['k'],[0.6809000000004062],1.0,2.0,2.0,0.6809000000004062,0.6809000000004062,2,1.0
test1,test1_stroop.csv,0,2020-01-01_00h00.00.000,stroop_artemis_2025.2.3,2025.2.4,60.24096386,Win32,65.0,1.0,classic,congruent,61.0,C5I,,,PINK,hotpink,1.1,['l'],[0.41119999999926904],1.0,3.0,3.0,0.41119999999926904,0.41119999999926904,3,1.0
test1,test1_stroop.csv,0,2020-01-01_00h00.00.000,stroop_artemis_2025.2.3,2025.2.4,60.24096386,Win32,66.0,1.0,classic,congruent,61.0,C5I,,,BLUE,blue,1.084,['j'],[0.6468999999993912],1.0,1.0,1.0,0.6468999999993912,0.6468999999993912,1,1.0
test1,test1_stroop.csv,0,2020-01-01_00h00.00.000,stroop_artemis_2025.2.3,2025.2.4,60.24096386,Win32,67.0,1.0,classic,congruent,61.0,C5I,,,PINK,hotpink,1.167,['l'],[0.5439999999999827],1.0,3.0,3.0,0.5439999999999827,0.5439999999999827,3,1.0
test1,test1_stroop.csv,0,2020-01-01_00h00.00.000,stroop_artemis_2025.2.3,2025.2.4,60.24096386,Win32,68.0,1.0,classic,congruent,61.0,C5I,,,BLUE,blue,1.05,['j'],[0.889299999999821],1.0,1.0,1.0,0.889299999999821,0.889299999999821,1,1.0
test1,test1_stroop.csv,0,2020-01-01_00h00.00.000,stroop_artemis_2025.2.3,2025.2.4,60.24096386,Win32,69.0,1.0,classic,incongruent,61.0,C5I,,,BLUE,hotpink,1.034,['l'],[0.5664000000003853],1.0,3.0,3.0,0.5664000000003853,0.5664000000003853,3,1.0
test1,test1_stroop.csv,0,2020-01-01_00h00.00.000,stroop_artemis_2025.2.3,2025.2.4,60.24096386,Win32,70.0,1.0,classic,neutral,62.0,N3I,,,XXXXX,saddlebrown,1.15,['k'],[0.624400000000378],1.0,2.0,2.0,0.624400000000378,0.624400000000378,2,1.0
test1,test1_stroop.csv,0,2020-01-01_00h00.00.000,stroop_artemis_2025.2.3,2025.2.4,60.24096386,Win32,71.0,1.0,classic,neutral,62.0,N3I,,,XXXX,hotpink,1.134,['l'],[0.750299999999811],1.0,3.0,3.0,0.750299999999811,0.750299999999811,3,1.0
test1,test1_stroop.csv,0,2020-01-01_00h00.00.000,stroop_artemis_2025.2.3,2025.2.4,60.24096386,Win32,72.0,1.0,classic,neutral,62.0,N3I,,,XXX,blue,1.0,['j'],[0.9469999999999459],1.0,1.0,1.0,0.9469999999999459,0.9469999999999459,1,1.0
test1,test1_stroop.csv,0,2020-01-01_00h00.00.000,stroop_artemis_2025.2.3,2025.2.4,60.24096386,Win32,73.0,1.0,classic,incongruent,62.0,N3I,,,BLUE,saddlebrown,1.017,['k'],[0.8872999999998115],1.0,2.0,2.0,0.8872999999998115,0.8872999999998115,2,1.0
test1,test1_stroop.csv,0,2020-01-01_00h00.00.000,stroop_artemis_2025.2.3,2025.2.4,60.24096386,Win32,74.0,1.0,classic,congruent,63.0,C7I,,,BROWN,saddlebrown,1.117,['k'],[0.6475999999996702],1.0,2.0,2.0,0.6475999999996702,0.6475999999996702,2,1.0
test1,test1_stroop.csv,0,2020-01-01_00h00.00.000,stroop_artemis_2025.2.3,2025.2.4,60.24096386,Win32,75.0,1.0,classic,congruent,63.0,C7I,,,PINK,hotpink,1.184,['l'],[0.5890999999996325],1.0,3.0,3.0,0.5890999999996325,0.5890999999996325,3,1.0
test1,test1_stroop.csv,0,2020-01-01_00h00.00.000,stroop_artemis_2025.2.3,2025.2.4,60.24096386,Win32,76.0,1.0,classic,congruent,63.0,C7I,,,BLUE,blue,1.2,,,0.0,,,,,1,
test1,test1_stroop.csv,0,2020-01-01_00h00.00.000,stroop_artemis_2025.2.3,2025.2.4,60.24096386,Win32,77.0,1.0,classic,congruent,63.0,C7I,,,BROWN,saddlebrown,1.117,"['j', 'k']","[0.06349999999997635, 0.5964999999999918]",2.0,1.0,2.0,0.06349999999997635,0.5964999999999918,2,0.0
test1,test1_stroop.csv,0,2020-01-01_00h00.00.000,stroop_artemis_2025.2.3,2025.2.4,60.24096386,Win32,78.0,1.0,classic,congruent,63.0,C7I,,,PINK,hotpink,1.134,['l'],[0.7666999999992186],1.0,3.0,3.0,0.7666999999992186,0.7666999999992186,3,1.0
test1,test1_stroop.csv,0,2020-01-01_00h00.00.000,stroop_artemis_2025.2.3,2025.2.4,60.24096386,Win32,79.0,1.0,classic,congruent,63.0,C7I,,,BROWN,saddlebrown,1.184,['k'],[1.0612000000002126],1.0,2.0,2.0,1.0612000000002126,1.0612000000002126,2,1.0
test1,test1_stroop.csv,0,2020-01-01_00h00.00.000,stroop_artemis_2025.2.3,2025.2.4,60.24096386,Win32,80.0,1.0,classic,congruent,63.0,C7I,,,BLUE,blue,1.067,['j'],[0.6428999999994858],1.0,1.0,1.0,0.6428999999994858,0.6428999999994858,1,1.0
test1,test1_stroop.csv,0,2020-01-01_00h00.00.000,stroop_artemis_2025.2.3,2025.2.4,60.24096386,Win32,81.0,1.0,classic,incongruent,63.0,C7I,,,PINK,saddlebrown,1.084,['l'],[0.6652000000001976],1.0,3.0,3.0,0.6652000000001976,0.6652000000001976,2,0.0
test1,test1_stroop.csv,0,2020-01-01_00h00.00.000,stroop_artemis_2025.2.3,2025.2.4,60.24096386,Win32,82.0,1.0,classic,congruent,64.0,CI,,,BLUE,blue,1.2,['j'],[0.6548999999994294],1.0,1.0,1.0,0.6548999999994294,0.6548999999994294,1,1.0
test1,test1_stroop.csv,0,2020-01-01_00h00.00.000,stroop_artemis_2025.2.3,2025.2.4,60.24096386,Win32,83.0,1.0,classic,incongruent,64.0,CI,,,PINK,blue,1.034,['k'],[0.8134999999999764],1.0,2.0,2.0,0.8134999999999764,0.8134999999999764,1,0.0
test1,test1_stroop.csv,0,2020-01-01_00h00.00.000,stroop_artemis_2025.2.3,2025.2.4,60.24096386,Win32,84.0,1.0,classic,incongruent,65.0,I2,,,BROWN,blue,1.0,['j'],[0.8787000000001512],1.0,1.0,1.0,0.8787000000001512,0.8787000000001512,1,1.0
test1,test1_stroop.csv,0,2020-01-01_00h00.00.000,stroop_artemis_2025.2.3,2025.2.4,60.24096386,Win32,85.0,1.0,classic,congruent,66.0,C3I,,,BROWN,saddlebrown,1.1,['k'],[0.6694000000003939],1.0,2.0,2.0,0.6694000000003939,0.6694000000003939,2,1.0
test1,test1_stroop.csv,0,2020-01-01_00h00.00.000,stroop_artemis_2025.2.3,2025.2.4,60.24096386,Win32,86.0,1.0,classic,congruent,66.0,C3I,,,PINK,hotpink,1.017,['l'],[0.555499999999995],1.0,3.0,3.0,0.555499999999995,0.555499999999995,3,1.0
test1,test1_stroop.csv,0,2020-01-01_00h00.00.000,stroop_artemis_2025.2.3,2025.2.4,60.24096386,Win32,87.0,1.0,classic,congruent,66.0,C3I,,,BROWN,saddlebrown,1.15,,,0.0,,,,,2,
test1,test1_stroop.csv,0,2020-01-01_00h00.00.000,stroop_artemis_2025.2.3,2025.2.4,60.24096386,Win32,88.0,1.0,classic,incongruent,66.0,C3I,,,PINK,saddlebrown,1.167,"['k', 'k']","[0.15329999999977417, 0.9235999999996238]",2.0,2.0,2.0,0.15329999999977417,0.9235999999996238,2,1.0
test1,test1_stroop.csv,0,2020-01-01_00h00.00.000,stroop_artemis_2025.2.3,2025.2.4,60.24096386,Win32,89.0,1.0,classic,congruent,67.0,C7I,,,PINK,hotpink,1.05,['l'],[0.4552000000002181],1.0,3.0,3.0,0.4552000000002181,0.4552000000002181,3,1.0
test1,test1_stroop.csv,0,2020-01-01_00h00.00.000,stroop_artemis_2025.2.3,2025.2.4,60.24096386,Win32,90.0,1.0,classic,congruent,67.0,C7I,,,BLUE,blue,1.15,['j'],[0.6192000000002054],1.0,1.0,1.0,0.6192000000002054,0.6192000000002054,1,1.0
test1,test1_stroop.csv,0,2020-01-01_00h00.00.000,stroop_artemis_2025.2.3,2025.2.4,60.24096386,Win32,91.0,1.0,classic,congruent,67.0,C7I,,,PINK,hotpink,1.084,['l'],[0.5111000000005106],1.0,3.0,3.0,0.5111000000005106,0.5111000000005106,3,1.0
test1,test1_stroop.csv,0,2020-01-01_00h00.00.000,stroop_artemis_2025.2.3,2025.2.4,60.24096386,Win32,92.0,1.0,classic,congruent,67.0,C7I,,,BROWN,saddlebrown,1.017,['k'],[0.5306000000005611],1.0,2.0,2.0,0.5306000000005611,0.5306000000005611,2,1.0
test1,test1_stroop.csv,0,2020-01-01_00h00.00.000,stroop_artemis_2025.2.3,2025.2.4,60.24096386,Win32,93.0,1.0,classic,congruent,67.0,C7I,,,BLUE,blue,1.167,['j'],[0.4904000000004203],1.0,1.0,1.0,0.4904000000004203,0.4904000000004203,1,1.0
test1,test1_stroop.csv,0,2020-01-01_00h00.00.000,stroop_artemis_2025.2.3,2025.2.4,60.24096386,Win32,94.0,1.0,classic,congruent,67.0,C7I,,,PINK,hotpink,1.05,['l'],[0.582100000000537],1.0,3.0,3.0,0.582100000000537,0.582100000000537,3,1.0
test1,test1_stroop.csv,0,2020-01-01_00h00.00.000,stroop_artemis_2025.2.3,2025.2.4,60.24096386,Win32,95.0,1.0,classic,congruent,67.0,C7I,,,BROWN,saddlebrown,1.0,['k'],[0.597899999999413],1.0,2.0,2.0,0.597899999999413,0.597899999999413,2,1.0
test1,test1_stroop.csv,0,2020-01-01_00h00.00.000,stroop_artemis_2025.2.3,2025.2.4,60.24096386,Win32,96.0,1.0,classic,incongruent,67.0,C7I,,,PINK,blue,1.1,['j'],[0.986500000000035],1.0,1.0,1.0,0.986500000000035,0.986500000000035,1,1.0
test1,test1_stroop.csv,0,2020-01-01_00h00.00.000,stroop_artemis_2025.2.3,2025.2.4,60.24096386,Win32,97.0,1.0,classic,neutral,68.0,NI,,,XXXXX,saddlebrown,1.184,['k'],[0.8237000000002013],1.0,2.0,2.0,0.8237000000002013,0.8237000000002013,2,1.0
test1,test1_stroop.csv,0,2020-01-01_00h00.00.000,stroop_artemis_2025.2.3,2025.2.4,60.24096386,Win32,98.0,1.0,classic,incongruent,68.0,NI,,,BLUE,saddlebrown,1.067,['j'],[0.8314999999999486],1.0,1.0,1.0,0.8314999999999486,0.8314999999999486,2,0.0
test1,test1_stroop.csv,0,2020-01-01_00h00.00.000,stroop_artemis_2025.2.3,2025.2.4,60.24096386,Win32,99.0,1.0,classic,congruent,69.0,C6I,,,BLUE,blue,1.2,['j'],[0.6162000000002195],1.0,1.0,1.0,0.6162000000002195,0.6162000000002195,1,1.0
test1,test1_stroop.csv,0,2020-01-01_00h00.00.000,stroop_artemis_2025.2.3,2025.2.4,60.24096386,Win32,100.0,1.0,classic,congruent,69.0,C6I,,,BROWN,saddlebrown,1.134,['k'],[0.5642999999998324],1.0,2.0,2.0,0.5642999999998324,0.5642999999998324,2,1.0
test1,test1_stroop.csv,0,2020-01-01_00h00.00.000,stroop_artemis_2025.2.3,2025.2.4,60.24096386,Win32,101.0,1.0,classic,congruent,69.0,C6I,,,BLUE,blue,1.117,['j'],[0.7065999999995825],1.0,1.0,1.0,0.7065999999995825,0.7065999999995825,1,1.0
test1,test1_stroop.csv,0,2020-01-01_00h00.00.000,stroop_artemis_2025.2.3,2025.2.4,60.24096386,Win32,102.0,1.0,classic,congruent,69.0,C6I,,,PINK,hotpink,1.034,['l'],[0.5780999999996084],1.0,3.0,3.0,0.5780999999996084,0.5780999999996084,3,1.0
test1,test1_stroop.csv,0,2020-01-01_00h00.00.000,stroop_artemis_2025.2.3,2025.2.4,60.24096386,Win32,103.0,1.0,classic,congruent,69.0,C6I,,,BROWN,saddlebrown,1.2,['k'],[0.5275000000000318],1.0,2.0,2.0,0.5275000000000318,0.5275000000000318,2,1.0
test1,test1_stroop.csv,0,2020-01-01_00h00.00.000,stroop_artemis_2025.2.3,2025.2.4,60.24096386,Win32,104.0,1.0,classic,congruent,69.0,C6I,,,BLUE,blue,1.067,['j'],[0.5982999999997674],1.0,1.0,1.0,0.5982999999997674,0.5982999999997674,1,1.0
test1,test1_stroop.csv,0,2020-01-01_00h00.00.000,stroop_artemis_2025.2.3,2025.2.4,60.24096386,Win32,105.0,1.0,classic,incongruent,69.0,C6I,,,BLUE,hotpink,1.034,['l'],[0.7654000000003407],1.0,3.0,3.0,0.7654000000003407,0.7654000000003407,3,1.0
test1,test1_stroop.csv,0,2020-01-01_00h00.00.000,stroop_artemis_2025.2.3,2025.2.4,60.24096386,Win32,106.0,1.0,classic,congruent,70.0,C5I,,,PINK,hotpink,1.167,['l'],[0.5767000000001872],1.0,3.0,3.0,0.5767000000001872,0.5767000000001872,3,1.0
test1,test1_stroop.csv,0,2020-01-01_00h00.00.000,stroop_artemis_2025.2.3,2025.2.4,60.24096386,Win32,107.0,1.0,classic,congruent,70.0,C5I,,,BROWN,saddlebrown,1.05,['k'],[0.5660999999996079],1.0,2.0,2.0,0.5660999999996079,0.5660999999996079,2,1.0
test1,test1_stroop.csv,0,2020-01-01_00h00.00.000,stroop_artemis_2025.2.3,2025.2.4,60.24096386,Win32,108.0,1.0,classic,congruent,70.0,C5I,,,BLUE,blue,1.017,['j'],[1.038599999999633],1.0,1.0,1.0,1.038599999999633,1.038599999999633,1,1.0
test1,test1_stroop.csv,0,2020-01-01_00h00.00.000,stroop_artemis_2025.2.3,2025.2.4,60.24096386,Win32,109.0,1.0,classic,congruent,70.0,C5I,,,PINK,hotpink,1.084,,,0.0,,,,,3,
test1,test1_stroop.csv,0,2020-01-01_00h00.00.000,stroop_artemis_2025.2.3,2025.2.4,60.24096386,Win32,110.0,1.0,classic,congruent,70.0,C5I,,,BROWN,saddlebrown,1.184,"['l', 'k']","[0.42549999999999955, 0.8312999999998283]",2.0,3.0,2.0,0.42549999999999955,0.8312999999998283,2,0.0
test1,test1_stroop.csv,0,2020-01-01_00h00.00.000,stroop_artemis_2025.2.3,2025.2.4,60.24096386,Win32,111.0,1.0,classic,incongruent,70.0,C5I,,,BROWN,blue,1.1,['j'],[0.9346999999992818],1.0,1.0,1.0,0.9346999999992818,0.9346999999992818,1,1.0
test1,test1_stroop.csv,0,2020-01-01_00h00.00.000,stroop_artemis_2025.2.3,2025.2.4,60.24096386,Win32,112.0,1.0,classic,neutral,71.0,N3I,,,XXX,blue,1.117,['j'],[0.9997999999998228],1.0,1.0,1.0,0.9997999999998228,0.9997999999998228,1,1.0
test1,test1_stroop.csv,0,2020-01-01_00h00.00.000,stroop_artemis_2025.2.3,2025.2.4,60.24096386,Win32,113.0,1.0,classic,neutral,71.0,N3I,,,XXXX,hotpink,1.15,['l'],[0.5687000000002058],1.0,3.0,3.0,0.5687000000002058,0.5687000000002058,3,1.0
test1,test1_stroop.csv,0,2020-01-01_00h00.00.000,stroop_artemis_2025.2.3,2025.2.4,60.24096386,Win32,114.0,1.0,classic,neutral,71.0,N3I,,,XXX,blue,1.0,['j'],[0.7454999999999927],1.0,1.0,1.0,0.7454999999999927,0.7454999999999927,1,1.0
test1,test1_stroop.csv,0,2020-01-01_00h00.00.000,stroop_artemis_2025.2.3,2025.2.4,60.24096386,Win32,115.0,1.0,classic,incongruent,71.0,N3I,,,BROWN,hotpink,1.134,['l'],[0.8717000000002031],1.0,3.0,3.0,0.8717000000002031,0.8717000000002031,3,1.0
test1,test1_stroop.csv,0,2020-01-01_00h00.00.000,stroop_artemis_2025.2.3,2025.2.4,60.24096386,Win32,116.0,1.0,classic,congruent,72.0,CI,,,PINK,hotpink,1.117,['l'],[0.5275000000000318],1.0,3.0,3.0,0.5275000000000318,0.5275000000000318,3,1.0
test1,test1_stroop.csv,0,2020-01-01_00h00.00.000,stroop_artemis_2025.2.3,2025.2.4,60.24096386,Win32,117.0,1.0,classic,incongruent,72.0,CI,,,PINK,saddlebrown,1.067,['l'],[0.32259999999962474],1.0,3.0,3.0,0.32259999999962474,0.32259999999962474,2,0.0
test1,test1_stroop.csv,0,2020-01-01_00h00.00.000,stroop_artemis_2025.2.3,2025.2.4,60.24096386,Win32,118.0,1.0,classic,congruent,73.0,C6I,,,BLUE,blue,1.0,['j'],[0.6120000000000232],1.0,1.0,1.0,0.6120000000000232,0.6120000000000232,1,1.0
test1,test1_stroop.csv,0,2020-01-01_00h00.00.000,stroop_artemis_2025.2.3,2025.2.4,60.24096386,Win32,119.0,1.0,classic,congruent,73.0,C6I,,,PINK,hotpink,1.184,['l'],[1.2018999999994548],1.0,3.0,3.0,1.2018999999994548,1.2018999999994548,3,1.0
test1,test1_stroop.csv,0,2020-01-01_00h00.00.000,stroop_artemis_2025.2.3,2025.2.4,60.24096386,Win32,120.0,1.0,classic,congruent,73.0,C6I,,,BLUE,blue,1.1,['k'],[0.6778000000007296],1.0,2.0,2.0,0.6778000000007296,0.6778000000007296,1,0.0
test1,test1_stroop.csv,0,2020-01-01_00h00.00.000,stroop_artemis_2025.2.3,2025.2.4,60.24096386,Win32,121.0,1.0,classic,congruent,73.0,C6I,,,BROWN,saddlebrown,1.05,['k'],[1.0507999999998106],1.0,2.0,2.0,1.0507999999998106,1.0507999999998106,2,1.0
test1,test1_stroop.csv,0,2020-01-01_00h00.00.000,stroop_artemis_2025.2.3,2025.2.4,60.24096386,Win32,122.0,1.0,classic,congruent,73.0,C6I,,,BLUE,blue,1.034,['j'],[0.49739999999945894],1.0,1.0,1.0,0.49739999999945894,0.49739999999945894,1,1.0
test1,test1_stroop.csv,0,2020-01-01_00h00.00.000,stroop_artemis_2025.2.3,2025.2.4,60.24096386,Win32,123.0,1.0,classic,congruent,73.0,C6I,,,PINK,hotpink,1.167,['l'],[0.49720000000019127],1.0,3.0,3.0,0.49720000000019127,0.49720000000019127,3,1.0
test1,test1_stroop.csv,0,2020-01-01_00h00.00.000,stroop_artemis_2025.2.3,2025.2.4,60.24096386,Win32,124.0,1.0,classic,incongruent,73.0,C6I,,,BROWN,hotpink,1.084,['j'],[0.8629999999999995],1.0,1.0,1.0,0.8629999999999995,0.8629999999999995,3,0.0
test1,test1_stroop.csv,0,2020-01-01_00h00.00.000,stroop_artemis_2025.2.3,2025.2.4,60.24096386,Win32,125.0,1.0,classic,congruent,74.0,C4I,,,BROWN,saddlebrown,1.134,['k'],[0.7946999999992954],1.0,2.0,2.0,0.7946999999992954,0.7946999999992954,2,1.0
test1,test1_stroop.csv,0,2020-01-01_00h00.00.000,stroop_artemis_2025.2.3,2025.2.4,60.24096386,Win32,126.0,1.0,classic,congruent,74.0,C4I,,,PINK,hotpink,1.017,['l'],[1.0949999999999704],1.0,3.0,3.0,1.0949999999999704,1.0949999999999704,3,1.0
test1,test1_stroop.csv,0,2020-01-01_00h00.00.000,stroop_artemis_2025.2.3,2025.2.4,60.24096386,Win32,127.0,1.0,classic,congruent,74.0,C4I,,,BLUE,blue,1.15,['j'],[0.5722000000001799],1.0,1.0,1.0,0.5722000000001799,0.5722000000001799,1,1.0
test1,test1_stroop.csv,0,2020-01-01_00h00.00.000,stroop_artemis_2025.2.3,2025.2.4,60.24096386,Win32,128.0,1.0,classic,congruent,74.0,C4I,,,BROWN,saddlebrown,1.2,['k'],[0.5840000000000032],1.0,2.0,2.0,0.5840000000000032,0.5840000000000032,2,1.0
test1,test1_stroop.csv,0,2020-01-01_00h00.00.000,stroop_artemis_2025.2.3,2025.2.4,60.24096386,Win32,129.0,1.0,classic,incongruent,74.0,C4I,,,BLUE,saddlebrown,1.117,['k'],[0.9630000000000223],1.0,2.0,2.0,0.9630000000000223,0.9630000000000223,2,1.0
test1,test1_stroop.csv,0,2020-01-01_00h00.00.000,stroop_artemis_2025.2.3,2025.2.4,60.24096386,Win32,130.0,1.0,classic,incongruent,75.0,I3,,,BROWN,blue,1.15,['j'],[0.6485000000000127],1.0,1.0,1.0,0.6485000000000127,0.6485000000000127,1,1.0
test1,test1_stroop.csv,0,2020-01-01_00h00.00.000,stroop_artemis_2025.2.3,2025.2.4,60.24096386,Win32,131.0,1.0,classic,incongruent,75.0,I3,,,BLUE,hotpink,1.184,['l'],[0.5052999999998065],1.0,3.0,3.0,0.5052999999998065,0.5052999999998065,3,1.0
test1,test1_stroop.csv,0,2020-01-01_00h00.00.000,stroop_artemis_2025.2.3,2025.2.4,60.24096386,Win32,132.0,1.0,classic,congruent,76.0,C6I,,,PINK,hotpink,1.017,['l'],[0.39070000000020855],1.0,3.0,3.0,0.39070000000020855,0.39070000000020855,3,1.0
test1,test1_stroop.csv,0,2020-01-01_00h00.00.000,stroop_artemis_2025.2.3,2025.2.4,60.24096386,Win32,133.0,1.0,classic,congruent,76.0,C6I,,,BLUE,blue,1.167,['j'],[0.8220999999996366],1.0,1.0,1.0,0.8220999999996366,0.8220999999996366,1,1.0
test1,test1_stroop.csv,0,2020-01-01_00h00.00.000,stroop_artemis_2025.2.3,2025.2.4,60.24096386,Win32,134.0,1.0,classic,congruent,76.0,C6I,,,BROWN,saddlebrown,1.134,['k'],[0.47950000000003],1.0,2.0,2.0,0.47950000000003,0.47950000000003,2,1.0
test1,test1_stroop.csv,0,2020-01-01_00h00.00.000,stroop_artemis_2025.2.3,2025.2.4,60.24096386,Win32,135.0,1.0,classic,congruent,76.0,C6I,,,BLUE,blue,1.034,['j'],[0.8137999999997874],1.0,1.0,1.0,0.8137999999997874,0.8137999999997874,1,1.0
test1,test1_stroop.csv,0,2020-01-01_00h00.00.000,stroop_artemis_2025.2.3,2025.2.4,60.24096386,Win32,136.0,1.0,classic,congruent,76.0,C6I,,,PINK,hotpink,1.067,['l'],[0.5074999999999932],1.0,3.0,3.0,0.5074999999999932,0.5074999999999932,3,1.0
test1,test1_stroop.csv,0,2020-01-01_00h00.00.000,stroop_artemis_2025.2.3,2025.2.4,60.24096386,Win32,137.0,1.0,classic,congruent,76.0,C6I,,,BROWN,saddlebrown,1.05,['k'],[0.9527000000001635],1.0,2.0,2.0,0.9527000000001635,0.9527000000001635,2,1.0
test1,test1_stroop.csv,0,2020-01-01_00h00.00.000,stroop_artemis_2025.2.3,2025.2.4,60.24096386,Win32,138.0,1.0,classic,incongruent,76.0,C6I,,,PINK,blue,1.1,['l'],[0.6773999999994658],1.0,3.0,3.0,0.6773999999994658,0.6773999999994658,1,0.0
test1,test1_stroop.csv,0,2020-01-01_00h00.00.000,stroop_artemis_2025.2.3,2025.2.4,60.24096386,Win32,139.0,1.0,classic,neutral,77.0,N2I,,,XXXX,hotpink,1.2,['l'],[0.67349999999999],1.0,3.0,3.0,0.67349999999999,0.67349999999999,3,1.0
test1,test1_stroop.csv,0,2020-01-01_00h00.00.000,stroop_artemis_2025.2.3,2025.2.4,60.24096386,Win32,140.0,1.0,classic,neutral,77.0,N2I,,,XXXXX,saddlebrown,1.0,['k'],[0.5662000000002081],1.0,2.0,2.0,0.5662000000002081,0.5662000000002081,2,1.0
test1,test1_stroop.csv,0,2020-01-01_00h00.00.000,stroop_artemis_2025.2.3,2025.2.4,60.24096386,Win32,141.0,1.0,classic,incongruent,77.0,N2I,,,BLUE,hotpink,1.084,['l'],[0.9335999999996147],1.0,3.0,3.0,0.9335999999996147,0.9335999999996147,3,1.0
test1,test1_stroop.csv,0,2020-01-01_00h00.00.000,stroop_artemis_2025.2.3,2025.2.4,60.24096386,Win32,142.0,1.0,classic,congruent,78.0,C4I,,,PINK,hotpink,1.0,['l'],[0.6043999999994298],1.0,3.0,3.0,0.6043999999994298,0.6043999999994298,3,1.0
test1,test1_stroop.csv,0,2020-01-01_00h00.00.000,stroop_artemis_2025.2.3,2025.2.4,60.24096386,Win32,143.0,1.0,classic,congruent,78.0,C4I,,,BLUE,blue,1.117,['j'],[0.603400000000363],1.0,1.0,1.0,0.603400000000363,0.603400000000363,1,1.0
test1,test1_stroop.csv,0,2020-01-01_00h00.00.000,stroop_artemis_2025.2.3,2025.2.4,60.24096386,Win32,144.0,1.0,classic,congruent,78.0,C4I,,,BROWN,saddlebrown,1.017,['k'],[0.9127000000001999],1.0,2.0,2.0,0.9127000000001999,0.9127000000001999,2,1.0
test1,test1_stroop.csv,0,2020-01-01_00h00.00.000,stroop_artemis_2025.2.3,2025.2.4,60.24096386,Win32,145.0,1.0,classic,congruent,78.0,C4I,,,BLUE,blue,1.084,['j'],[0.8067999999997824],1.0,1.0,1.0,0.8067999999997824,0.8067999999997824,1,1.0
test1,test1_stroop.csv,0,2020-01-01_00h00.00.000,stroop_artemis_2025.2.3,2025.2.4,60.24096386,Win32,146.0,1.0,classic,incongruent,78.0,C4I,,,PINK,saddlebrown,1.15,['k'],[1.0877999999998451],1.0,2.0,2.0,1.0877999999998451,1.0877999999998451,2,1.0
test1,test1_stroop.csv,0,2020-01-01_00h00.00.000,stroop_artemis_2025.2.3,2025.2.4,60.24096386,Win32,147.0,1.0,classic,congruent,79.0,C6I,,,PINK,hotpink,1.05,['l'],[0.6773000000007414],1.0,3.0,3.0,0.6773000000007414,0.6773000000007414,3,1.0
test1,test1_stroop.csv,0,2020-01-01_00h00.00.000,stroop_artemis_2025.2.3,2025.2.4,60.24096386,Win32,148.0,1.0,classic,congruent,79.0,C6I,,,BROWN,saddlebrown,1.184,['k'],[0.5057000000001608],1.0,2.0,2.0,0.5057000000001608,0.5057000000001608,2,1.0
test1,test1_stroop.csv,0,2020-01-01_00h00.00.000,stroop_artemis_2025.2.3,2025.2.4,60.24096386,Win32,149.0,1.0,classic,congruent,79.0,C6I,,,PINK,hotpink,1.067,['l'],[0.8157000000001631],1.0,3.0,3.0,0.8157000000001631,0.8157000000001631,3,1.0
test1,test1_stroop.csv,0,2020-01-01_00h00.00.000,stroop_artemis_2025.2.3,2025.2.4,60.24096386,Win32,150.0,1.0,classic,congruent,79.0,C6I,,,BLUE,blue,1.2,['j'],[0.839900000000398],1.0,1.0,1.0,0.839900000000398,0.839900000000398,1,1.0
test1,test1_stroop.csv,0,2020-01-01_00h00.00.000,stroop_artemis_2025.2.3,2025.2.4,60.24096386,Win32,151.0,1.0,classic,congruent,79.0,C6I,,,BROWN,saddlebrown,1.1,['k'],[0.5833999999994717],1.0,2.0,2.0,0.5833999999994717,0.5833999999994717,2,1.0
test1,test1_stroop.csv,0,2020-01-01_00h00.00.000,stroop_artemis_2025.2.3,2025.2.4,60.24096386,Win32,152.0,1.0,classic,congruent,79.0,C6I,,,PINK,hotpink,1.134,['l'],[1.1065000000000396],1.0,3.0,3.0,1.1065000000000396,1.1065000000000396,3,1.0
test1,test1_stroop.csv,0,2020-01-01_00h00.00.000,stroop_artemis_2025.2.3,2025.2.4,60.24096386,Win32,153.0,1.0,classic,incongruent,79.0,C6I,,,BLUE,saddlebrown,1.034,,,0.0,,,,,2,
test1,test1_stroop.csv,0,2020-01-01_00h00.00.000,stroop_artemis_2025.2.3,2025.2.4,60.24096386,Win32,154.0,1.0,classic,incongruent,80.0,I2,,,BROWN,blue,1.167,"['k', 'j']","[0.4230000000000018, 0.971900000000403]",2.0,2.0,1.0,0.4230000000000018,0.971900000000403,1,0.0
test1,test1_stroop.csv,0,2020-01-01_00h00.00.000,stroop_artemis_2025.2.3,2025.2.4,60.24096386,Win32,155.0,1.0,classic,congruent,81.0,C2I,,,BLUE,blue,1.067,['j'],[0.5709000000003357],1.0,1.0,1.0,0.5709000000003357,0.5709000000003357,1,1.0
test1,test1_stroop.csv,0,2020-01-01_00h00.00.000,stroop_artemis_2025.2.3,2025.2.4,60.24096386,Win32,156.0,1.0,classic,congruent,81.0,C2I,,,BROWN,saddlebrown,1.167,['k'],[0.6043000000007055],1.0,2.0,2.0,0.6043000000007055,0.6043000000007055,2,1.0
test1,test1_stroop.csv,0,2020-01-01_00h00.00.000,stroop_artemis_2025.2.3,2025.2.4,60.24096386,Win32,157.0,1.0,classic,incongruent,81.0,C2I,,,PINK,blue,1.184,['l'],[0.6222999999997683],1.0,3.0,3.0,0.6222999999997683,0.6222999999997683,1,0.0
test1,test1_stroop.csv,0,2020-01-01_00h00.00.000,stroop_artemis_2025.2.3,2025.2.4,60.24096386,Win32,158.0,1.0,classic,neutral,82.0,N3I,,,XXX,blue,1.2,['k'],[0.5562000000001603],1.0,2.0,2.0,0.5562000000001603,0.5562000000001603,1,0.0
test1,test1_stroop.csv,0,2020-01-01_00h00.00.000,stroop_artemis_2025.2.3,2025.2.4,60.24096386,Win32,159.0,1.0,classic,neutral,82.0,N3I,,,XXXX,hotpink,1.1,['l'],[0.5142000000001872],1.0,3.0,3.0,0.5142000000001872,0.5142000000001872,3,1.0
test1,test1_stroop.csv,0,2020-01-01_00h00.00.000,stroop_artemis_2025.2.3,2025.2.4,60.24096386,Win32,160.0,1.0,classic,neutral,82.0,N3I,,,XXXXX,saddlebrown,1.017,['k'],[0.6111000000005902],1.0,2.0,2.0,0.6111000000005902,0.6111000000005902,2,1.0
test1,test1_stroop.csv,0,2020-01-01_00h00.00.000,stroop_artemis_2025.2.3,2025.2.4,60.24096386,Win32,161.0,1.0,classic,incongruent,82.0,N3I,,,BROWN,hotpink,1.0,['l'],[1.0024999999999977],1.0,3.0,3.0,1.0024999999999977,1.0024999999999977,3,1.0
test1,test1_stroop.csv,0,2020-01-01_00h00.00.000,stroop_artemis_2025.2.3,2025.2.4,60.24096386,Win32,162.0,1.0,classic,congruent,83.0,C4I,,,BLUE,blue,1.134,['k'],[0.65300000000002],1.0,2.0,2.0,0.65300000000002,0.65300000000002,1,0.0
test1,test1_stroop.csv,0,2020-01-01_00h00.00.000,stroop_artemis_2025.2.3,2025.2.4,60.24096386,Win32,163.0,1.0,classic,congruent,83.0,C4I,,,BROWN,saddlebrown,1.15,['k'],[0.5555000000000518],1.0,2.0,2.0,0.5555000000000518,0.5555000000000518,2,1.0
test1,test1_stroop.csv,0,2020-01-01_00h00.00.000,stroop_artemis_2025.2.3,2025.2.4,60.24096386,Win32,164.0,1.0,classic,congruent,83.0,C4I,,,PINK,hotpink,1.117,['l'],[0.6443999999994503],1.0,3.0,3.0,0.6443999999994503,0.6443999999994503,3,1.0
test1,test1_stroop.csv,0,2020-01-01_00h00.00.000,stroop_artemis_2025.2.3,2025.2.4,60.24096386,Win32,165.0,1.0,classic,congruent,83.0,C4I,,,BROWN,saddlebrown,1.05,['k'],[0.4850999999996475],1.0,2.0,2.0,0.4850999999996475,0.4850999999996475,2,1.0
test1,test1_stroop.csv,0,2020-01-01_00h00.00.000,stroop_artemis_2025.2.3,2025.2.4,60.24096386,Win32,166.0,1.0,classic,incongruent,83.0,C4I,,,PINK,saddlebrown,1.034,['l'],[0.5853999999994812],1.0,3.0,3.0,0.5853999999994812,0.5853999999994812,2,0.0
test1,test1_stroop.csv,0,2020-01-01_00h00.00.000,stroop_artemis_2025.2.3,2025.2.4,60.24096386,Win32,167.0,1.0,classic,incongruent,84.0,I3,,,BLUE,saddlebrown,1.084,['k'],[0.9516000000005533],1.0,2.0,2.0,0.9516000000005533,0.9516000000005533,2,1.0
test1,test1_stroop.csv,0,2020-01-01_00h00.00.000,stroop_artemis_2025.2.3,2025.2.4,60.24096386,Win32,168.0,1.0,classic,incongruent,84.0,I3,,,BROWN,hotpink,1.134,['l'],[0.6464000000003693],1.0,3.0,3.0,0.6464000000003693,0.6464000000003693,3,1.0
test1,test1_stroop.csv,0,2020-01-01_00h00.00.000,stroop_artemis_2025.2.3,2025.2.4,60.24096386,Win32,169.0,1.0,classic,congruent,85.0,C4I,,,BLUE,blue,1.084,['j'],[0.6139000000003989],1.0,1.0,1.0,0.6139000000003989,0.6139000000003989,1,1.0
test1,test1_stroop.csv,0,2020-01-01_00h00.00.000,stroop_artemis_2025.2.3,2025.2.4,60.24096386,Win32,170.0,1.0,classic,congruent,85.0,C4I,,,PINK,hotpink,1.184,['l'],[0.6410999999996534],1.0,3.0,3.0,0.6410999999996534,0.6410999999996534,3,1.0
test1,test1_stroop.csv,0,2020-01-01_00h00.00.000,stroop_artemis_2025.2.3,2025.2.4,60.24096386,Win32,171.0,1.0,classic,congruent,85.0,C4I,,,BLUE,blue,1.15,['j'],[0.707700000000159],1.0,1.0,1.0,0.707700000000159,0.707700000000159,1,1.0
test1,test1_stroop.csv,0,2020-01-01_00h00.00.000,stroop_artemis_2025.2.3,2025.2.4,60.24096386,Win32,172.0,1.0,classic,congruent,85.0,C4I,,,BROWN,saddlebrown,1.067,['k'],[0.5199999999999818],1.0,2.0,2.0,0.5199999999999818,0.5199999999999818,2,1.0
test1,test1_stroop.csv,0,2020-01-01_00h00.00.000,stroop_artemis_2025.2.3,2025.2.4,60.24096386,Win32,173.0,1.0,classic,incongruent,85.0,C4I,,,PINK,blue,1.2,['j'],[1.0297999999997955],1.0,1.0,1.0,1.0297999999997955,1.0297999999997955,1,1.0
test1,test1_stroop.csv,0,2020-01-01_00h00.00.000,stroop_artemis_2025.2.3,2025.2.4,60.24096386,Win32,174.0,1.0,classic,congruent,86.0,C2I,,,PINK,hotpink,1.05,['l'],[0.6955000000000382],1.0,3.0,3.0,0.6955000000000382,0.6955000000000382,3,1.0
test1,test1_stroop.csv,0,2020-01-01_00h00.00.000,stroop_artemis_2025.2.3,2025.2.4,60.24096386,Win32,175.0,1.0,classic,congruent,86.0,C2I,,,BLUE,blue,1.017,,,0.0,,,,,1,
test1,test1_stroop.csv,0,2020-01-01_00h00.00.000,stroop_artemis_2025.2.3,2025.2.4,60.24096386,Win32,176.0,1.0,classic,incongruent,86.0,C2I,,,BROWN,blue,1.167,['j'],[0.8062000000001603],1.0,1.0,1.0,0.8062000000001603,0.8062000000001603,1,1.0
test1,test1_stroop.csv,0,2020-01-01_00h00.00.000,stroop_artemis_2025.2.3,2025.2.4,60.24096386,Win32,0.0,2.0,classic,congruent,1.0,C7I,,,BROWN,saddlebrown,1.034,,,0.0,,,,,2,
test1,test1_stroop.csv,0,2020-01-01_00h00.00.000,stroop_artemis_2025.2.3,2025.2.4,60.24096386,Win32,1.0,2.0,classic,congruent,1.0,C7I,,,PINK,hotpink,1.1,"['k', 'l']","[0.17029999999982692, 0.5360999999996352]",2.0,2.0,3.0,0.17029999999982692,0.5360999999996352,3,0.0
test1,test1_stroop.csv,0,2020-01-01_00h00.00.000,stroop_artemis_2025.2.3,2025.2.4,60.24096386,Win32,2.0,2.0,classic,congruent,1.0,C7I,,,BROWN,saddlebrown,1.0,['k'],[0.527799999999786],1.0,2.0,2.0,0.527799999999786,0.527799999999786,2,1.0
test1,test1_stroop.csv,0,2020-01-01_00h00.00.000,stroop_artemis_2025.2.3,2025.2.4,60.24096386,Win32,3.0,2.0,classic,congruent,1.0,C7I,,,PINK,hotpink,1.117,['l'],[0.5185999999995943],1.0,3.0,3.0,0.5185999999995943,0.5185999999995943,3,1.0
test1,test1_stroop.csv,0,2020-01-01_00h00.00.000,stroop_artemis_2025.2.3,2025.2.4,60.24096386,Win32,4.0,2.0,classic,congruent,1.0,C7I,,,BLUE,blue,1.2,['j'],[0.5169000000003621],1.0,1.0,1.0,0.5169000000003621,0.5169000000003621,1,1.0
test1,test1_stroop.csv,0,2020-01-01_00h00.00.000,stroop_artemis_2025.2.3,2025.2.4,60.24096386,Win32,5.0,2.0,classic,congruent,1.0,C7I,,,BROWN,saddlebrown,1.0,['k'],[0.5807000000002063],1.0,2.0,2.0,0.5807000000002063,0.5807000000002063,2,1.0
test1,test1_stroop.csv,0,2020-01-01_00h00.00.000,stroop_artemis_2025.2.3,2025.2.4,60.24096386,Win32,6.0,2.0,classic,congruent,1.0,C7I,,,BLUE,blue,1.084,['j'],[0.9339999999999691],1.0,1.0,1.0,0.9339999999999691,0.9339999999999691,1,1.0
test1,test1_stroop.csv,0,2020-01-01_00h00.00.000,stroop_artemis_2025.2.3,2025.2.4,60.24096386,Win32,7.0,2.0,classic,incongruent,1.0,C7I,,,BLUE,hotpink,1.034,['l'],[0.603700000000174],1.0,3.0,3.0,0.603700000000174,0.603700000000174,3,1.0
test1,test1_stroop.csv,0,2020-01-01_00h00.00.000,stroop_artemis_2025.2.3,2025.2.4,60.24096386,Win32,8.0,2.0,classic,neutral,2.0,NI,,,XXX,blue,1.017,['j'],[0.7252999999997769],1.0,1.0,1.0,0.7252999999997769,0.7252999999997769,1,1.0
test1,test1_stroop.csv,0,2020-01-01_00h00.00.000,stroop_artemis_2025.2.3,2025.2.4,60.24096386,Win32,9.0,2.0,classic,incongruent,2.0,NI,,,BLUE,hotpink,1.05,['l'],[0.9545999999996297],1.0,3.0,3.0,0.9545999999996297,0.9545999999996297,3,1.0
test1,test1_stroop.csv,0,2020-01-01_00h00.00.000,stroop_artemis_2025.2.3,2025.2.4,60.24096386,Win32,10.0,2.0,classic,congruent,3.0,C2I,,,PINK,hotpink,1.15,['l'],[0.6352999999998019],1.0,3.0,3.0,0.6352999999998019,0.6352999999998019,3,1.0
test1,test1_stroop.csv,0,2020-01-01_00h00.00.000,stroop_artemis_2025.2.3,2025.2.4,60.24096386,Win32,11.0,2.0,classic,congruent,3.0,C2I,,,BROWN,saddlebrown,1.134,['k'],[0.5989999999999895],1.0,2.0,2.0,0.5989999999999895,0.5989999999999895,2,1.0
test1,test1_stroop.csv,0,2020-01-01_00h00.00.000,stroop_artemis_2025.2.3,2025.2.4,60.24096386,Win32,12.0,2.0,classic,incongruent,3.0,C2I,,,PINK,blue,1.067,['j'],[0.7695999999996275],1.0,1.0,1.0,0.7695999999996275,0.7695999999996275,1,1.0
test1,test1_stroop.csv,0,2020-01-01_00h00.00.000,stroop_artemis_2025.2.3,2025.2.4,60.24096386,Win32,13.0,2.0,classic,congruent,4.0,C3I,,,BLUE,blue,1.1,['j'],[0.5282999999997742],1.0,1.0,1.0,0.5282999999997742,0.5282999999997742,1,1.0
test1,test1_stroop.csv,0,2020-01-01_00h00.00.000,stroop_artemis_2025.2.3,2025.2.4,60.24096386,Win32,14.0,2.0,classic,congruent,4.0,C3I,,,PINK,hotpink,1.184,['l'],[0.6062000000001717],1.0,3.0,3.0,0.6062000000001717,0.6062000000001717,3,1.0
test1,test1_stroop.csv,0,2020-01-01_00h00.00.000,stroop_artemis_2025.2.3,2025.2.4,60.24096386,Win32,15.0,2.0,classic,congruent,4.0,C3I,,,BLUE,blue,1.167,['j'],[0.5576000000005479],1.0,1.0,1.0,0.5576000000005479,0.5576000000005479,1,1.0
test1,test1_stroop.csv,0,2020-01-01_00h00.00.000,stroop_artemis_2025.2.3,2025.2.4,60.24096386,Win32,16.0,2.0,classic,incongruent,4.0,C3I,,,BROWN,blue,1.117,['k'],[0.6205999999996266],1.0,2.0,2.0,0.6205999999996266,0.6205999999996266,1,0.0
test1,test1_stroop.csv,0,2020-01-01_00h00.00.000,stroop_artemis_2025.2.3,2025.2.4,60.24096386,Win32,17.0,2.0,classic,congruent,5.0,CI,,,BROWN,saddlebrown,1.1,['k'],[0.4350000000000023],1.0,2.0,2.0,0.4350000000000023,0.4350000000000023,2,1.0
test1,test1_stroop.csv,0,2020-01-01_00h00.00.000,stroop_artemis_2025.2.3,2025.2.4,60.24096386,Win32,18.0,2.0,classic,incongruent,5.0,CI,,,BLUE,saddlebrown,1.0,['k'],[0.9312999999997942],1.0,2.0,2.0,0.9312999999997942,0.9312999999997942,2,1.0
test1,test1_stroop.csv,0,2020-01-01_00h00.00.000,stroop_artemis_2025.2.3,2025.2.4,60.24096386,Win32,19.0,2.0,classic,neutral,6.0,N2I,,,XXXX,hotpink,1.2,['l'],[0.7130999999995993],1.0,3.0,3.0,0.7130999999995993,0.7130999999995993,3,1.0
test1,test1_stroop.csv,0,2020-01-01_00h00.00.000,stroop_artemis_2025.2.3,2025.2.4,60.24096386,Win32,20.0,2.0,classic,neutral,6.0,N2I,,,XXXXX,saddlebrown,1.017,['k'],[0.563599999999667],1.0,2.0,2.0,0.563599999999667,0.563599999999667,2,1.0
test1,test1_stroop.csv,0,2020-01-01_00h00.00.000,stroop_artemis_2025.2.3,2025.2.4,60.24096386,Win32,21.0,2.0,classic,incongruent,6.0,N2I,,,PINK,saddlebrown,1.167,['k'],[0.9616999999992117],1.0,2.0,2.0,0.9616999999992117,0.9616999999992117,2,1.0
test1,test1_stroop.csv,0,2020-01-01_00h00.00.000,stroop_artemis_2025.2.3,2025.2.4,60.24096386,Win32,22.0,2.0,classic,congruent,7.0,C7I,,,PINK,hotpink,1.084,['l'],[0.6842999999997801],1.0,3.0,3.0,0.6842999999997801,0.6842999999997801,3,1.0
test1,test1_stroop.csv,0,2020-01-01_00h00.00.000,stroop_artemis_2025.2.3,2025.2.4,60.24096386,Win32,23.0,2.0,classic,congruent,7.0,C7I,,,BLUE,blue,1.134,['j'],[0.5447000000002049],1.0,1.0,1.0,0.5447000000002049,0.5447000000002049,1,1.0
test1,test1_stroop.csv,0,2020-01-01_00h00.00.000,stroop_artemis_2025.2.3,2025.2.4,60.24096386,Win32,24.0,2.0,classic,congruent,7.0,C7I,,,BROWN,saddlebrown,1.117,['k'],[0.5435000000000514],1.0,2.0,2.0,0.5435000000000514,0.5435000000000514,2,1.0
test1,test1_stroop.csv,0,2020-01-01_00h00.00.000,stroop_artemis_2025.2.3,2025.2.4,60.24096386,Win32,25.0,2.0,classic,congruent,7.0,C7I,,,PINK,hotpink,1.15,['l'],[0.8179999999999836],1.0,3.0,3.0,0.8179999999999836,0.8179999999999836,3,1.0
test1,test1_stroop.csv,0,2020-01-01_00h00.00.000,stroop_artemis_2025.2.3,2025.2.4,60.24096386,Win32,26.0,2.0,classic,congruent,7.0,C7I,,,BLUE,blue,1.067,['j'],[0.5329000000003816],1.0,1.0,1.0,0.5329000000003816,0.5329000000003816,1,1.0
test1,test1_stroop.csv,0,2020-01-01_00h00.00.000,stroop_artemis_2025.2.3,2025.2.4,60.24096386,Win32,27.0,2.0,classic,congruent,7.0,C7I,,,BROWN,saddlebrown,1.184,['k'],[0.4876000000005547],1.0,2.0,2.0,0.4876000000005547,0.4876000000005547,2,1.0
test1,test1_stroop.csv,0,2020-01-01_00h00.00.000,stroop_artemis_2025.2.3,2025.2.4,60.24096386,Win32,28.0,2.0,classic,congruent,7.0,C7I,,,PINK,hotpink,1.034,['l'],[0.7328999999994608],1.0,3.0,3.0,0.7328999999994608,0.7328999999994608,3,1.0
test1,test1_stroop.csv,0,2020-01-01_00h00.00.000,stroop_artemis_2025.2.3,2025.2.4,60.24096386,Win32,29.0,2.0,classic,incongruent,7.0,C7I,,,BROWN,hotpink,1.05,['l'],[0.8700000000000045],1.0,3.0,3.0,0.8700000000000045,0.8700000000000045,3,1.0
test1,test1_stroop.csv,0,2020-01-01_00h00.00.000,stroop_artemis_2025.2.3,2025.2.4,60.24096386,Win32,30.0,2.0,classic,incongruent,8.0,I4,,,BLUE,saddlebrown,1.05,['k'],[0.9144000000003984],1.0,2.0,2.0,0.9144000000003984,0.9144000000003984,2,1.0
test1,test1_stroop.csv,0,2020-01-01_00h00.00.000,stroop_artemis_2025.2.3,2025.2.4,60.24096386,Win32,31.0,2.0,classic,incongruent,8.0,I4,,,PINK,saddlebrown,1.15,['k'],[1.0751999999991995],1.0,2.0,2.0,1.0751999999991995,1.0751999999991995,2,1.0
test1,test1_stroop.csv,0,2020-01-01_00h00.00.000,stroop_artemis_2025.2.3,2025.2.4,60.24096386,Win32,32.0,2.0,classic,incongruent,8.0,I4,,,BROWN,hotpink,1.1,['l'],[0.97950000000003],1.0,3.0,3.0,0.97950000000003,0.97950000000003,3,1.0
test1,test1_stroop.csv,0,2020-01-01_00h00.00.000,stroop_artemis_2025.2.3,2025.2.4,60.24096386,Win32,33.0,2.0,classic,congruent,9.0,C5I,,,BLUE,blue,1.134,['j'],[0.5309999999999491],1.0,1.0,1.0,0.5309999999999491,0.5309999999999491,1,1.0
test1,test1_stroop.csv,0,2020-01-01_00h00.00.000,stroop_artemis_2025.2.3,2025.2.4,60.24096386,Win32,34.0,2.0,classic,congruent,9.0,C5I,,,BROWN,saddlebrown,1.0,['k'],[0.47929999999973916],1.0,2.0,2.0,0.47929999999973916,0.47929999999973916,2,1.0
test1,test1_stroop.csv,0,2020-01-01_00h00.00.000,stroop_artemis_2025.2.3,2025.2.4,60.24096386,Win32,35.0,2.0,classic,congruent,9.0,C5I,,,PINK,hotpink,1.017,['l'],[0.5235000000000127],1.0,3.0,3.0,0.5235000000000127,0.5235000000000127,3,1.0
test1,test1_stroop.csv,0,2020-01-01_00h00.00.000,stroop_artemis_2025.2.3,2025.2.4,60.24096386,Win32,36.0,2.0,classic,congruent,9.0,C5I,,,BROWN,saddlebrown,1.084,['k'],[0.4616999999992686],1.0,2.0,2.0,0.4616999999992686,0.4616999999992686,2,1.0
test1,test1_stroop.csv,0,2020-01-01_00h00.00.000,stroop_artemis_2025.2.3,2025.2.4,60.24096386,Win32,37.0,2.0,classic,congruent,9.0,C5I,,,PINK,hotpink,1.067,['l'],[0.5341999999992595],1.0,3.0,3.0,0.5341999999992595,0.5341999999992595,3,1.0
test1,test1_stroop.csv,0,2020-01-01_00h00.00.000,stroop_artemis_2025.2.3,2025.2.4,60.24096386,Win32,38.0,2.0,classic,incongruent,9.0,C5I,,,PINK,blue,1.034,['j'],[0.6250999999996338],1.0,1.0,1.0,0.6250999999996338,0.6250999999996338,1,1.0
test1,test1_stroop.csv,0,2020-01-01_00h00.00.000,stroop_artemis_2025.2.3,2025.2.4,60.24096386,Win32,39.0,2.0,classic,neutral,10.0,N2I,,,XXX,blue,1.2,['j'],[0.5412000000002308],1.0,1.0,1.0,0.5412000000002308,0.5412000000002308,1,1.0
test1,test1_stroop.csv,0,2020-01-01_00h00.00.000,stroop_artemis_2025.2.3,2025.2.4,60.24096386,Win32,40.0,2.0,classic,neutral,10.0,N2I,,,XXXX,hotpink,1.167,['l'],[0.8034999999999854],1.0,3.0,3.0,0.8034999999999854,0.8034999999999854,3,1.0
test1,test1_stroop.csv,0,2020-01-01_00h00.00.000,stroop_artemis_2025.2.3,2025.2.4,60.24096386,Win32,41.0,2.0,classic,incongruent,10.0,N2I,,,BLUE,hotpink,1.184,['l'],[0.8663999999994303],1.0,3.0,3.0,0.8663999999994303,0.8663999999994303,3,1.0
test1,test1_stroop.csv,0,2020-01-01_00h00.00.000,stroop_artemis_2025.2.3,2025.2.4,60.24096386,Win32,42.0,2.0,classic,congruent,11.0,C4I,,,BLUE,blue,1.117,['j'],[0.5990000000000464],1.0,1.0,1.0,0.5990000000000464,0.5990000000000464,1,1.0
test1,test1_stroop.csv,0,2020-01-01_00h00.00.000,stroop_artemis_2025.2.3,2025.2.4,60.24096386,Win32,43.0,2.0,classic,congruent,11.0,C4I,,,BROWN,saddlebrown,1.0,['k'],[0.46129999999971005],1.0,2.0,2.0,0.46129999999971005,0.46129999999971005,2,1.0
test1,test1_stroop.csv,0,2020-01-01_00h00.00.000,stroop_artemis_2025.2.3,2025.2.4,60.24096386,Win32,44.0,2.0,classic,congruent,11.0,C4I,,,BLUE,blue,1.117,['j'],[0.5929999999999609],1.0,1.0,1.0,0.5929999999999609,0.5929999999999609,1,1.0
test1,test1_stroop.csv,0,2020-01-01_00h00.00.000,stroop_artemis_2025.2.3,2025.2.4,60.24096386,Win32,45.0,2.0,classic,congruent,11.0,C4I,,,PINK,hotpink,1.067,['l'],[0.3944000000003598],1.0,3.0,3.0,0.3944000000003598,0.3944000000003598,3,1.0
test1,test1_stroop.csv,0,2020-01-01_00h00.00.000,stroop_artemis_2025.2.3,2025.2.4,60.24096386,Win32,46.0,2.0,classic,incongruent,11.0,C4I,,,BROWN,blue,1.167,['j'],[0.9187000000001717],1.0,1.0,1.0,0.9187000000001717,0.9187000000001717,1,1.0
test1,test1_stroop.csv,0,2020-01-01_00h00.00.000,stroop_artemis_2025.2.3,2025.2.4,60.24096386,Win32,47.0,2.0,classic,congruent,12.0,C6I,,,BLUE,blue,1.05,['j'],[0.7432999999997492],1.0,1.0,1.0,0.7432999999997492,0.7432999999997492,1,1.0
test1,test1_stroop.csv,0,2020-01-01_00h00.00.000,stroop_artemis_2025.2.3,2025.2.4,60.24096386,Win32,48.0,2.0,classic,congruent,12.0,C6I,,,PINK,hotpink,1.134,['l'],[0.5784999999999627],1.0,3.0,3.0,0.5784999999999627,0.5784999999999627,3,1.0
test1,test1_stroop.csv,0,2020-01-01_00h00.00.000,stroop_artemis_2025.2.3,2025.2.4,60.24096386,Win32,49.0,2.0,classic,congruent,12.0,C6I,,,BROWN,saddlebrown,1.084,['k'],[0.6867000000002008],1.0,2.0,2.0,0.6867000000002008,0.6867000000002008,2,1.0
test1,test1_stroop.csv,0,2020-01-01_00h00.00.000,stroop_artemis_2025.2.3,2025.2.4,60.24096386,Win32,50.0,2.0,classic,congruent,12.0,C6I,,,PINK,hotpink,1.017,['l'],[0.5607000000001108],1.0,3.0,3.0,0.5607000000001108,0.5607000000001108,3,1.0
test1,test1_stroop.csv,0,2020-01-01_00h00.00.000,stroop_artemis_2025.2.3,2025.2.4,60.24096386,Win32,51.0,2.0,classic,congruent,12.0,C6I,,,BLUE,blue,1.1,['j'],[0.6555999999995947],1.0,1.0,1.0,0.6555999999995947,0.6555999999995947,1,1.0
test1,test1_stroop.csv,0,2020-01-01_00h00.00.000,stroop_artemis_2025.2.3,2025.2.4,60.24096386,Win32,52.0,2.0,classic,congruent,12.0,C6I,,,BROWN,saddlebrown,1.15,['k'],[0.37879999999984193],1.0,2.0,2.0,0.37879999999984193,0.37879999999984193,2,1.0
test1,test1_stroop.csv,0,2020-01-01_00h00.00.000,stroop_artemis_2025.2.3,2025.2.4,60.24096386,Win32,53.0,2.0,classic,incongruent,12.0,C6I,,,PINK,blue,1.034,['j'],[0.47849999999994],1.0,1.0,1.0,0.47849999999994,0.47849999999994,1,1.0
test1,test1_stroop.csv,0,2020-01-01_00h00.00.000,stroop_artemis_2025.2.3,2025.2.4,60.24096386,Win32,54.0,2.0,classic,neutral,13.0,N2I,,,XXXXX,saddlebrown,1.2,['k'],[0.6357999999997901],1.0,2.0,2.0,0.6357999999997901,0.6357999999997901,2,1.0
test1,test1_stroop.csv,0,2020-01-01_00h00.00.000,stroop_artemis_2025.2.3,2025.2.4,60.24096386,Win32,55.0,2.0,classic,neutral,13.0,N2I,,,XXX,blue,1.184,['k'],[0.478799999999751],1.0,2.0,2.0,0.478799999999751,0.478799999999751,1,0.0
test1,test1_stroop.csv,0,2020-01-01_00h00.00.000,stroop_artemis_2025.2.3,2025.2.4,60.24096386,Win32,56.0,2.0,classic,incongruent,13.0,N2I,,,PINK,saddlebrown,1.134,['k'],[0.646099999999592],1.0,2.0,2.0,0.646099999999592,0.646099999999592,2,1.0
test1,test1_stroop.csv,0,2020-01-01_00h00.00.000,stroop_artemis_2025.2.3,2025.2.4,60.24096386,Win32,57.0,2.0,classic,congruent,14.0,C2I,,,BROWN,saddlebrown,1.034,['k'],[0.6784000000004653],1.0,2.0,2.0,0.6784000000004653,0.6784000000004653,2,1.0
test1,test1_stroop.csv,0,2020-01-01_00h00.00.000,stroop_artemis_2025.2.3,2025.2.4,60.24096386,Win32,58.0,2.0,classic,congruent,14.0,C2I,,,BLUE,blue,1.2,['j'],[0.639199999999164],1.0,1.0,1.0,0.639199999999164,0.639199999999164,1,1.0
test1,test1_stroop.csv,0,2020-01-01_00h00.00.000,stroop_artemis_2025.2.3,2025.2.4,60.24096386,Win32,59.0,2.0,classic,incongruent,14.0,C2I,,,BLUE,hotpink,1.184,['l'],[0.6402999999997974],1.0,3.0,3.0,0.6402999999997974,0.6402999999997974,3,1.0
test1,test1_stroop.csv,0,2020-01-01_00h00.00.000,stroop_artemis_2025.2.3,2025.2.4,60.24096386,Win32,60.0,2.0,classic,congruent,15.0,C6I,,,PINK,hotpink,1.1,['l'],[0.5694000000003143],1.0,3.0,3.0,0.5694000000003143,0.5694000000003143,3,1.0
test1,test1_stroop.csv,0,2020-01-01_00h00.00.000,stroop_artemis_2025.2.3,2025.2.4,60.24096386,Win32,61.0,2.0,classic,congruent,15.0,C6I,,,BROWN,saddlebrown,1.0,['k'],[0.6722000000002026],1.0,2.0,2.0,0.6722000000002026,0.6722000000002026,2,1.0
test1,test1_stroop.csv,0,2020-01-01_00h00.00.000,stroop_artemis_2025.2.3,2025.2.4,60.24096386,Win32,62.0,2.0,classic,congruent,15.0,C6I,,,PINK,hotpink,1.15,['l'],[0.9992000000002008],1.0,3.0,3.0,0.9992000000002008,0.9992000000002008,3,1.0
test1,test1_stroop.csv,0,2020-01-01_00h00.00.000,stroop_artemis_2025.2.3,2025.2.4,60.24096386,Win32,63.0,2.0,classic,congruent,15.0,C6I,,,BLUE,blue,1.067,['j'],[0.5057000000001608],1.0,1.0,1.0,0.5057000000001608,0.5057000000001608,1,1.0
test1,test1_stroop.csv,0,2020-01-01_00h00.00.000,stroop_artemis_2025.2.3,2025.2.4,60.24096386,Win32,64.0,2.0,classic,congruent,15.0,C6I,,,PINK,hotpink,1.017,['l'],[0.7189999999999372],1.0,3.0,3.0,0.7189999999999372,0.7189999999999372,3,1.0
test1,test1_stroop.csv,0,2020-01-01_00h00.00.000,stroop_artemis_2025.2.3,2025.2.4,60.24096386,Win32,65.0,2.0,classic,congruent,15.0,C6I,,,BROWN,saddlebrown,1.084,['k'],[0.7509000000003425],1.0,2.0,2.0,0.7509000000003425,0.7509000000003425,2,1.0
test1,test1_stroop.csv,0,2020-01-01_00h00.00.000,stroop_artemis_2025.2.3,2025.2.4,60.24096386,Win32,66.0,2.0,classic,incongruent,15.0,C6I,,,BROWN,blue,1.117,['j'],[0.8684999999999263],1.0,1.0,1.0,0.8684999999999263,0.8684999999999263,1,1.0
test1,test1_stroop.csv,0,2020-01-01_00h00.00.000,stroop_artemis_2025.2.3,2025.2.4,60.24096386,Win32,67.0,2.0,classic,neutral,16.0,N2I,,,XXXXX,saddlebrown,1.167,['k'],[0.5539999999999736],1.0,2.0,2.0,0.5539999999999736,0.5539999999999736,2,1.0
test1,test1_stroop.csv,0,2020-01-01_00h00.00.000,stroop_artemis_2025.2.3,2025.2.4,60.24096386,Win32,68.0,2.0,classic,neutral,16.0,N2I,,,XXXX,hotpink,1.05,['l'],[0.5047999999998183],1.0,3.0,3.0,0.5047999999998183,0.5047999999998183,3,1.0
test1,test1_stroop.csv,0,2020-01-01_00h00.00.000,stroop_artemis_2025.2.3,2025.2.4,60.24096386,Win32,69.0,2.0,classic,incongruent,16.0,N2I,,,BROWN,hotpink,1.2,['j'],[0.6580999999996493],1.0,1.0,1.0,0.6580999999996493,0.6580999999996493,3,0.0
test1,test1_stroop.csv,0,2020-01-01_00h00.00.000,stroop_artemis_2025.2.3,2025.2.4,60.24096386,Win32,70.0,2.0,classic,congruent,17.0,C5I,,,BLUE,blue,1.067,['j'],[0.9303999999993948],1.0,1.0,1.0,0.9303999999993948,0.9303999999993948,1,1.0
test1,test1_stroop.csv,0,2020-01-01_00h00.00.000,stroop_artemis_2025.2.3,2025.2.4,60.24096386,Win32,71.0,2.0,classic,congruent,17.0,C5I,,,BROWN,saddlebrown,1.1,['k'],[0.4412000000002081],1.0,2.0,2.0,0.4412000000002081,0.4412000000002081,2,1.0
test1,test1_stroop.csv,0,2020-01-01_00h00.00.000,stroop_artemis_2025.2.3,2025.2.4,60.24096386,Win32,72.0,2.0,classic,congruent,17.0,C5I,,,BLUE,blue,1.15,['j'],[0.5146000000005415],1.0,1.0,1.0,0.5146000000005415,0.5146000000005415,1,1.0
test1,test1_stroop.csv,0,2020-01-01_00h00.00.000,stroop_artemis_2025.2.3,2025.2.4,60.24096386,Win32,73.0,2.0,classic,congruent,17.0,C5I,,,PINK,hotpink,1.0,['l'],[0.39139999999940756],1.0,3.0,3.0,0.39139999999940756,0.39139999999940756,3,1.0
test1,test1_stroop.csv,0,2020-01-01_00h00.00.000,stroop_artemis_2025.2.3,2025.2.4,60.24096386,Win32,74.0,2.0,classic,congruent,17.0,C5I,,,BLUE,blue,1.084,"['j', 'j']","[0.5405000000000655, 0.8397999999998547]",2.0,1.0,1.0,0.5405000000000655,0.8397999999998547,1,1.0
test1,test1_stroop.csv,0,2020-01-01_00h00.00.000,stroop_artemis_2025.2.3,2025.2.4,60.24096386,Win32,75.0,2.0,classic,incongruent,18.0,C5I,,,BLUE,saddlebrown,1.017,['k'],[0.5849000000004025],1.0,2.0,2.0,0.5849000000004025,0.5849000000004025,2,1.0
test1,test1_stroop.csv,0,2020-01-01_00h00.00.000,stroop_artemis_2025.2.3,2025.2.4,60.24096386,Win32,76.0,2.0,classic,incongruent,18.0,I2,,,BLUE,hotpink,1.167,['l'],[0.402299999999741],1.0,3.0,3.0,0.402299999999741,0.402299999999741,3,1.0
test1,test1_stroop.csv,0,2020-01-01_00h00.00.000,stroop_artemis_2025.2.3,2025.2.4,60.24096386,Win32,77.0,2.0,classic,congruent,19.0,C3I,,,PINK,hotpink,1.117,['l'],[0.583700000000249],1.0,3.0,3.0,0.583700000000249,0.583700000000249,3,1.0
test1,test1_stroop.csv,0,2020-01-01_00h00.00.000,stroop_artemis_2025.2.3,2025.2.4,60.24096386,Win32,78.0,2.0,classic,congruent,19.0,C3I,,,BROWN,saddlebrown,1.134,['k'],[0.555400000000418],1.0,2.0,2.0,0.555400000000418,0.555400000000418,2,1.0
test1,test1_stroop.csv,0,2020-01-01_00h00.00.000,stroop_artemis_2025.2.3,2025.2.4,60.24096386,Win32,79.0,2.0,classic,congruent,19.0,C3I,,,PINK,hotpink,1.184,['l'],[0.513299999999731],1.0,3.0,3.0,0.513299999999731,0.513299999999731,3,1.0
test1,test1_stroop.csv,0,2020-01-01_00h00.00.000,stroop_artemis_2025.2.3,2025.2.4,60.24096386,Win32,80.0,2.0,classic,incongruent,19.0,C3I,,,BROWN,hotpink,1.034,['l'],[0.9743999999994912],1.0,3.0,3.0,0.9743999999994912,0.9743999999994912,3,1.0
test1,test1_stroop.csv,0,2020-01-01_00h00.00.000,stroop_artemis_2025.2.3,2025.2.4,60.24096386,Win32,81.0,2.0,classic,congruent,20.0,CI,,,BLUE,blue,1.05,['j'],[0.6169999999999618],1.0,1.0,1.0,0.6169999999999618,0.6169999999999618,1,1.0
test1,test1_stroop.csv,0,2020-01-01_00h00.00.000,stroop_artemis_2025.2.3,2025.2.4,60.24096386,Win32,82.0,2.0,classic,incongruent,20.0,CI,,,BROWN,blue,1.167,['j'],[0.7159000000003743],1.0,1.0,1.0,0.7159000000003743,0.7159000000003743,1,1.0
test1,test1_stroop.csv,0,2020-01-01_00h00.00.000,stroop_artemis_2025.2.3,2025.2.4,60.24096386,Win32,83.0,2.0,classic,congruent,21.0,C3I,,,BROWN,saddlebrown,1.05,['k'],[0.5707000000001017],1.0,2.0,2.0,0.5707000000001017,0.5707000000001017,2,1.0
test1,test1_stroop.csv,0,2020-01-01_00h00.00.000,stroop_artemis_2025.2.3,2025.2.4,60.24096386,Win32,84.0,2.0,classic,congruent,21.0,C3I,,,PINK,hotpink,1.017,['l'],[0.9672000000002754],1.0,3.0,3.0,0.9672000000002754,0.9672000000002754,3,1.0
test1,test1_stroop.csv,0,2020-01-01_00h00.00.000,stroop_artemis_2025.2.3,2025.2.4,60.24096386,Win32,85.0,2.0,classic,congruent,21.0,C3I,,,BROWN,saddlebrown,1.117,['k'],[0.4726000000005115],1.0,2.0,2.0,0.4726000000005115,0.4726000000005115,2,1.0
test1,test1_stroop.csv,0,2020-01-01_00h00.00.000,stroop_artemis_2025.2.3,2025.2.4,60.24096386,Win32,86.0,2.0,classic,incongruent,21.0,C3I,,,PINK,blue,1.184,['j'],[0.6332000000002154],1.0,1.0,1.0,0.6332000000002154,0.6332000000002154,1,1.0
test1,test1_stroop.csv,0,2020-01-01_00h00.00.000,stroop_artemis_2025.2.3,2025.2.4,60.24096386,Win32,87.0,2.0,classic,incongruent,22.0,I3,,,BLUE,saddlebrown,1.0,['k'],[0.889299999999821],1.0,2.0,2.0,0.889299999999821,0.889299999999821,2,1.0
test1,test1_stroop.csv,0,2020-01-01_00h00.00.000,stroop_artemis_2025.2.3,2025.2.4,60.24096386,Win32,88.0,2.0,classic,incongruent,22.0,I3,,,PINK,saddlebrown,1.067,['k'],[0.9942999999997255],1.0,2.0,2.0,0.9942999999997255,0.9942999999997255,2,1.0
test1,test1_stroop.csv,0,2020-01-01_00h00.00.000,stroop_artemis_2025.2.3,2025.2.4,60.24096386,Win32,89.0,2.0,classic,congruent,23.0,CI,,,BLUE,blue,1.034,,,0.0,,,,,1,
test1,test1_stroop.csv,0,2020-01-01_00h00.00.000,stroop_artemis_2025.2.3,2025.2.4,60.24096386,Win32,90.0,2.0,classic,incongruent,23.0,CI,,,BLUE,saddlebrown,1.1,"['j', 'k']","[0.05029999999976553, 0.7554000000003498]",2.0,1.0,2.0,0.05029999999976553,0.7554000000003498,2,0.0
test1,test1_stroop.csv,0,2020-01-01_00h00.00.000,stroop_artemis_2025.2.3,2025.2.4,60.24096386,Win32,91.0,2.0,classic,congruent,24.0,C7I,,,PINK,hotpink,1.15,['l'],[0.47870000000011714],1.0,3.0,3.0,0.47870000000011714,0.47870000000011714,3,1.0
test1,test1_stroop.csv,0,2020-01-01_00h00.00.000,stroop_artemis_2025.2.3,2025.2.4,60.24096386,Win32,92.0,2.0,classic,congruent,24.0,C7I,,,BLUE,blue,1.2,['j'],[0.3841999999992822],1.0,1.0,1.0,0.3841999999992822,0.3841999999992822,1,1.0
test1,test1_stroop.csv,0,2020-01-01_00h00.00.000,stroop_artemis_2025.2.3,2025.2.4,60.24096386,Win32,93.0,2.0,classic,congruent,24.0,C7I,,,BROWN,saddlebrown,1.134,['k'],[0.374700000000189],1.0,2.0,2.0,0.374700000000189,0.374700000000189,2,1.0
test1,test1_stroop.csv,0,2020-01-01_00h00.00.000,stroop_artemis_2025.2.3,2025.2.4,60.24096386,Win32,94.0,2.0,classic,congruent,24.0,C7I,,,BLUE,blue,1.084,['j'],[0.37479999999970914],1.0,1.0,1.0,0.37479999999970914,0.37479999999970914,1,1.0
test1,test1_stroop.csv,0,2020-01-01_00h00.00.000,stroop_artemis_2025.2.3,2025.2.4,60.24096386,Win32,95.0,2.0,classic,congruent,24.0,C7I,,,BROWN,saddlebrown,1.017,['k'],[0.5018000000007987],1.0,2.0,2.0,0.5018000000007987,0.5018000000007987,2,1.0
test1,test1_stroop.csv,0,2020-01-01_00h00.00.000,stroop_artemis_2025.2.3,2025.2.4,60.24096386,Win32,96.0,2.0,classic,congruent,24.0,C7I,,,PINK,hotpink,1.117,['l'],[0.5983999999994012],1.0,3.0,3.0,0.5983999999994012,0.5983999999994012,3,1.0
test1,test1_stroop.csv,0,2020-01-01_00h00.00.000,stroop_artemis_2025.2.3,2025.2.4,60.24096386,Win32,97.0,2.0,classic,congruent,24.0,C7I,,,BROWN,saddlebrown,1.184,['k'],[0.47729999999978645],1.0,2.0,2.0,0.47729999999978645,0.47729999999978645,2,1.0
test1,test1_stroop.csv,0,2020-01-01_00h00.00.000,stroop_artemis_2025.2.3,2025.2.4,60.24096386,Win32,98.0,2.0,classic,incongruent,24.0,C7I,,,PINK,blue,1.2,['l'],[0.5844000000004144],1.0,3.0,3.0,0.5844000000004144,0.5844000000004144,1,0.0
