id,filename,session,datetime,exp_name,software_version,framerate,os,trial,block,test,condition,subblock,subblock_type,change_color,emot_color_switch,this_word,this_color,this_duration,response,rt,num_responses,response_first,response_last,rt_first,rt_last,correct_opt,correct
test3,test3_stroop.csv,2,2020-01-01_00h00.00.000,stroop_artemis_2025.2.3,2025.2.4,59.88023952,Linux armv81,0.0,0.0,emotional,neutral,139.0,Neutx2_Neg,1.0,,move,saddlebrown,1.084,['trial_opt2_shape'],[0.6413999999761586],1.0,2.0,2.0,0.6413999999761586,0.6413999999761586,2,1.0
test3,test3_stroop.csv,2,2020-01-01_00h00.00.000,stroop_artemis_2025.2.3,2025.2.4,59.88023952,Linux armv81,1.0,0.0,emotional,neutral,139.0,Neutx2_Neg,0.0,,cactus,saddlebrown,1.067,['trial_opt2_shape'],[0.4796999999880782],1.0,2.0,2.0,0.4796999999880782,0.4796999999880782,2,1.0
test3,test3_stroop.csv,2,2020-01-01_00h00.00.000,stroop_artemis_2025.2.3,2025.2.4,59.88023952,Linux armv81,2.0,0.0,emotional,negative,139.0,Neutx2_Neg,1.0,NeutNegSwitch,pessimist,hotpink,1.167,['trial_opt3_shape'],[0.5643000000119187],1.0,3.0,3.0,0.5643000000119187,0.5643000000119187,3,1.0
test3,test3_stroop.csv,2,2020-01-01_00h00.00.000,stroop_artemis_2025.2.3,2025.2.4,59.88023952,Linux armv81,3.0,0.0,emotional,neutral,140.0,Neutx2_Neg,1.0,,rope,saddlebrown,1.017,['trial_opt2_shape'],[0.7137999999523146],1.0,2.0,2.0,0.7137999999523146,0.7137999999523146,2,1.0
test3,test3_stroop.csv,2,2020-01-01_00h00.00.000,stroop_artemis_2025.2.3,2025.2.4,59.88023952,Linux armv81,4.0,0.0,emotional,neutral,140.0,Neutx2_Neg,0.0,,compare,saddlebrown,1.184,['trial_opt2_shape'],[0.6302000000476866],1.0,2.0,2.0,0.6302000000476866,0.6302000000476866,2,1.0
test3,test3_stroop.csv,2,2020-01-01_00h00.00.000,stroop_artemis_2025.2.3,2025.2.4,59.88023952,Linux armv81,5.0,0.0,emotional,negative,140.0,Neutx2_Neg,1.0,NeutNegSwitch,nervous,hotpink,1.034,['trial_opt3_shape'],[0.4976999999880789],1.0,3.0,3.0,0.4976999999880789,0.4976999999880789,3,1.0
test3,test3_stroop.csv,2,2020-01-01_00h00.00.000,stroop_artemis_2025.2.3,2025.2.4,59.88023952,Linux armv81,6.0,0.0,emotional,neutral,141.0,Neutx5_Neg,1.0,,predict,blue,1.05,['trial_opt1_shape'],[0.3803000000119212],1.0,1.0,1.0,0.3803000000119212,0.3803000000119212,1,1.0
test3,test3_stroop.csv,2,2020-01-01_00h00.00.000,stroop_artemis_2025.2.3,2025.2.4,59.88023952,Linux armv81,7.0,0.0,emotional,neutral,141.0,Neutx5_Neg,0.0,,gather,blue,1.15,['trial_opt1_shape'],[0.482300000011918],1.0,1.0,1.0,0.482300000011918,0.482300000011918,1,1.0
test3,test3_stroop.csv,2,2020-01-01_00h00.00.000,stroop_artemis_2025.2.3,2025.2.4,59.88023952,Linux armv81,8.0,0.0,emotional,negative,141.0,Neutx5_Neg,1.0,NeutNegSwitch,alone,hotpink,1.117,['trial_opt3_shape'],[0.6818000000119184],1.0,3.0,3.0,0.6818000000119184,0.6818000000119184,3,1.0
test3,test3_stroop.csv,2,2020-01-01_00h00.00.000,stroop_artemis_2025.2.3,2025.2.4,59.88023952,Linux armv81,9.0,0.0,emotional,neutral,142.0,Neutx3_Neg,1.0,,principal,saddlebrown,1.2,['trial_opt2_shape'],[0.5131999999880748],1.0,2.0,2.0,0.5131999999880748,0.5131999999880748,2,1.0
test3,test3_stroop.csv,2,2020-01-01_00h00.00.000,stroop_artemis_2025.2.3,2025.2.4,59.88023952,Linux armv81,10.0,0.0,emotional,neutral,142.0,Neutx3_Neg,0.0,,warrior,saddlebrown,1.0,['trial_opt2_shape'],[0.7804000000357689],1.0,2.0,2.0,0.7804000000357689,0.7804000000357689,2,1.0
test3,test3_stroop.csv,2,2020-01-01_00h00.00.000,stroop_artemis_2025.2.3,2025.2.4,59.88023952,Linux armv81,11.0,0.0,emotional,negative,142.0,Neutx3_Neg,0.0,NeutNegNoSwitch,shame,saddlebrown,1.134,['trial_opt2_shape'],[0.5476000000238486],1.0,2.0,2.0,0.5476000000238486,0.5476000000238486,2,1.0
test3,test3_stroop.csv,2,2020-01-01_00h00.00.000,stroop_artemis_2025.2.3,2025.2.4,59.88023952,Linux armv81,12.0,0.0,emotional,neutral,143.0,Neutx3_Neg,1.0,,grate,hotpink,1.1,['trial_opt3_shape'],[0.546799999952313],1.0,3.0,3.0,0.546799999952313,0.546799999952313,3,1.0
test3,test3_stroop.csv,2,2020-01-01_00h00.00.000,stroop_artemis_2025.2.3,2025.2.4,59.88023952,Linux armv81,13.0,0.0,emotional,neutral,143.0,Neutx3_Neg,0.0,,unit,hotpink,1.034,['trial_opt3_shape'],[0.48050000000000637],1.0,3.0,3.0,0.48050000000000637,0.48050000000000637,3,1.0
test3,test3_stroop.csv,2,2020-01-01_00h00.00.000,stroop_artemis_2025.2.3,2025.2.4,59.88023952,Linux armv81,14.0,0.0,emotional,negative,143.0,Neutx3_Neg,0.0,NeutNegNoSwitch,sneer,hotpink,1.017,['trial_opt3_shape'],[0.5969000000357596],1.0,3.0,3.0,0.5969000000357596,0.5969000000357596,3,1.0
test3,test3_stroop.csv,2,2020-01-01_00h00.00.000,stroop_artemis_2025.2.3,2025.2.4,59.88023952,Linux armv81,15.0,0.0,emotional,neutral,144.0,Neutx4_Pos,1.0,,clay,blue,1.1,[None],[0.4326999999880883],1.0,,,0.4326999999880883,0.4326999999880883,1,
test3,test3_stroop.csv,2,2020-01-01_00h00.00.000,stroop_artemis_2025.2.3,2025.2.4,59.88023952,Linux armv81,16.0,0.0,emotional,neutral,144.0,Neutx4_Pos,0.0,,vase,blue,1.084,['trial_opt1_shape'],[0.39749999999999375],1.0,1.0,1.0,0.39749999999999375,0.39749999999999375,1,1.0
test3,test3_stroop.csv,2,2020-01-01_00h00.00.000,stroop_artemis_2025.2.3,2025.2.4,59.88023952,Linux armv81,17.0,0.0,emotional,positive,144.0,Neutx4_Pos,1.0,NeutPosSwitch,superior,hotpink,1.134,['trial_opt3_shape'],[0.5797999999523142],1.0,3.0,3.0,0.5797999999523142,0.5797999999523142,3,1.0
test3,test3_stroop.csv,2,2020-01-01_00h00.00.000,stroop_artemis_2025.2.3,2025.2.4,59.88023952,Linux armv81,18.0,0.0,emotional,positive,145.0,Posx4,0.0,,service,hotpink,1.184,['trial_opt3_shape'],[0.4801000000238389],1.0,3.0,3.0,0.4801000000238389,0.4801000000238389,3,1.0
test3,test3_stroop.csv,2,2020-01-01_00h00.00.000,stroop_artemis_2025.2.3,2025.2.4,59.88023952,Linux armv81,19.0,0.0,emotional,positive,145.0,Posx4,0.0,PosNoSwitch,healthy,hotpink,1.0,['trial_opt3_shape'],[0.46309999996424267],1.0,3.0,3.0,0.46309999996424267,0.46309999996424267,3,1.0
test3,test3_stroop.csv,2,2020-01-01_00h00.00.000,stroop_artemis_2025.2.3,2025.2.4,59.88023952,Linux armv81,20.0,0.0,emotional,neutral,146.0,Neutx3_Neg,1.0,,pretend,blue,1.05,[None],[0.41330000001191536],1.0,,,0.41330000001191536,0.41330000001191536,1,
test3,test3_stroop.csv,2,2020-01-01_00h00.00.000,stroop_artemis_2025.2.3,2025.2.4,59.88023952,Linux armv81,21.0,0.0,emotional,neutral,146.0,Neutx3_Neg,0.0,,commanding,blue,1.2,['trial_opt1_shape'],[0.4806999999880901],1.0,1.0,1.0,0.4806999999880901,0.4806999999880901,1,1.0
test3,test3_stroop.csv,2,2020-01-01_00h00.00.000,stroop_artemis_2025.2.3,2025.2.4,59.88023952,Linux armv81,22.0,0.0,emotional,negative,146.0,Neutx3_Neg,0.0,NeutNegNoSwitch,lousy,blue,1.117,['trial_opt1_shape'],[0.4475000000000051],1.0,1.0,1.0,0.4475000000000051,0.4475000000000051,1,1.0
test3,test3_stroop.csv,2,2020-01-01_00h00.00.000,stroop_artemis_2025.2.3,2025.2.4,59.88023952,Linux armv81,23.0,0.0,emotional,neutral,147.0,Neutx1_Neg,1.0,,sweep,saddlebrown,1.167,['trial_opt2_shape'],[0.5803000000119312],1.0,2.0,2.0,0.5803000000119312,0.5803000000119312,2,1.0
test3,test3_stroop.csv,2,2020-01-01_00h00.00.000,stroop_artemis_2025.2.3,2025.2.4,59.88023952,Linux armv81,24.0,0.0,emotional,negative,147.0,Neutx1_Neg,1.0,NeutNegSwitch,awkward,hotpink,1.067,['trial_opt3_shape'],[0.4976000000238372],1.0,3.0,3.0,0.4976000000238372,0.4976000000238372,3,1.0
test3,test3_stroop.csv,2,2020-01-01_00h00.00.000,stroop_artemis_2025.2.3,2025.2.4,59.88023952,Linux armv81,25.0,0.0,emotional,positive,148.0,Posx2,1.0,,lovely,blue,1.15,['trial_opt1_shape'],[0.7818000000119127],1.0,1.0,1.0,0.7818000000119127,0.7818000000119127,1,1.0
test3,test3_stroop.csv,2,2020-01-01_00h00.00.000,stroop_artemis_2025.2.3,2025.2.4,59.88023952,Linux armv81,26.0,0.0,emotional,positive,148.0,Posx2,1.0,PosSwitch,lullaby,saddlebrown,1.2,['trial_opt2_shape'],[1.0634999999999906],1.0,2.0,2.0,1.0634999999999906,1.0634999999999906,2,1.0
test3,test3_stroop.csv,2,2020-01-01_00h00.00.000,stroop_artemis_2025.2.3,2025.2.4,59.88023952,Linux armv81,27.0,0.0,emotional,neutral,149.0,Neutx2_Pos,1.0,,fireplace,blue,1.134,['trial_opt1_shape'],[0.6798000000119231],1.0,1.0,1.0,0.6798000000119231,0.6798000000119231,1,1.0
test3,test3_stroop.csv,2,2020-01-01_00h00.00.000,stroop_artemis_2025.2.3,2025.2.4,59.88023952,Linux armv81,28.0,0.0,emotional,neutral,149.0,Neutx2_Pos,0.0,,flick,blue,1.167,['trial_opt1_shape'],[0.546999999999997],1.0,1.0,1.0,0.546999999999997,0.546999999999997,1,1.0
test3,test3_stroop.csv,2,2020-01-01_00h00.00.000,stroop_artemis_2025.2.3,2025.2.4,59.88023952,Linux armv81,29.0,0.0,emotional,positive,149.0,Neutx2_Pos,1.0,NeutPosSwitch,brave,hotpink,1.067,['trial_opt3_shape'],[0.5969000000357596],1.0,3.0,3.0,0.5969000000357596,0.5969000000357596,3,1.0
test3,test3_stroop.csv,2,2020-01-01_00h00.00.000,stroop_artemis_2025.2.3,2025.2.4,59.88023952,Linux armv81,30.0,0.0,emotional,neutral,150.0,Neutx1_Neg,1.0,,toaster,saddlebrown,1.05,['trial_opt2_shape'],[0.680700000047679],1.0,2.0,2.0,0.680700000047679,0.680700000047679,2,1.0
test3,test3_stroop.csv,2,2020-01-01_00h00.00.000,stroop_artemis_2025.2.3,2025.2.4,59.88023952,Linux armv81,31.0,0.0,emotional,negative,150.0,Neutx1_Neg,0.0,NeutNegNoSwitch,defective,saddlebrown,1.084,['trial_opt2_shape'],[0.6806999999880787],1.0,2.0,2.0,0.6806999999880787,0.6806999999880787,2,1.0
test3,test3_stroop.csv,2,2020-01-01_00h00.00.000,stroop_artemis_2025.2.3,2025.2.4,59.88023952,Linux armv81,32.0,0.0,emotional,positive,151.0,Posx3,1.0,,prosper,hotpink,1.0,['trial_opt3_shape'],[0.749400000035763],1.0,3.0,3.0,0.749400000035763,0.749400000035763,3,1.0
test3,test3_stroop.csv,2,2020-01-01_00h00.00.000,stroop_artemis_2025.2.3,2025.2.4,59.88023952,Linux armv81,33.0,0.0,emotional,positive,151.0,Posx3,0.0,,funny,hotpink,1.1,['trial_opt3_shape'],[0.6303999999761487],1.0,3.0,3.0,0.6303999999761487,0.6303999999761487,3,1.0
test3,test3_stroop.csv,2,2020-01-01_00h00.00.000,stroop_artemis_2025.2.3,2025.2.4,59.88023952,Linux armv81,34.0,0.0,emotional,positive,151.0,Posx3,0.0,PosNoSwitch,new,hotpink,1.034,['trial_opt3_shape'],[0.5321999999880802],1.0,3.0,3.0,0.5321999999880802,0.5321999999880802,3,1.0
test3,test3_stroop.csv,2,2020-01-01_00h00.00.000,stroop_artemis_2025.2.3,2025.2.4,59.88023952,Linux armv81,35.0,0.0,emotional,negative,152.0,Negx4,1.0,,anxiety,blue,1.117,['trial_opt1_shape'],[0.4139000000357669],1.0,1.0,1.0,0.4139000000357669,0.4139000000357669,1,1.0
test3,test3_stroop.csv,2,2020-01-01_00h00.00.000,stroop_artemis_2025.2.3,2025.2.4,59.88023952,Linux armv81,36.0,0.0,emotional,negative,152.0,Negx4,0.0,,error,blue,1.017,['trial_opt1_shape'],[0.44640000003576574],1.0,1.0,1.0,0.44640000003576574,0.44640000003576574,1,1.0
test3,test3_stroop.csv,2,2020-01-01_00h00.00.000,stroop_artemis_2025.2.3,2025.2.4,59.88023952,Linux armv81,37.0,0.0,emotional,negative,152.0,Negx4,1.0,NegSwitch,ridicule,saddlebrown,1.15,['trial_opt2_shape'],[0.44899999999999807],1.0,2.0,2.0,0.44899999999999807,0.44899999999999807,2,1.0
test3,test3_stroop.csv,2,2020-01-01_00h00.00.000,stroop_artemis_2025.2.3,2025.2.4,59.88023952,Linux armv81,38.0,0.0,emotional,positive,153.0,Posx4,1.0,,witty,blue,1.184,['trial_opt1_shape'],[0.5158999999761562],1.0,1.0,1.0,0.5158999999761562,0.5158999999761562,1,1.0
test3,test3_stroop.csv,2,2020-01-01_00h00.00.000,stroop_artemis_2025.2.3,2025.2.4,59.88023952,Linux armv81,39.0,0.0,emotional,positive,153.0,Posx4,0.0,,darling,blue,1.067,['trial_opt1_shape'],[0.5991000000238387],1.0,1.0,1.0,0.5991000000238387,0.5991000000238387,1,1.0
test3,test3_stroop.csv,2,2020-01-01_00h00.00.000,stroop_artemis_2025.2.3,2025.2.4,59.88023952,Linux armv81,40.0,0.0,emotional,positive,153.0,Posx4,0.0,PosNoSwitch,optimist,blue,1.134,['trial_opt1_shape'],[0.4993000000119281],1.0,1.0,1.0,0.4993000000119281,0.4993000000119281,1,1.0
test3,test3_stroop.csv,2,2020-01-01_00h00.00.000,stroop_artemis_2025.2.3,2025.2.4,59.88023952,Linux armv81,41.0,0.0,emotional,neutral,154.0,Neutx2_Pos,1.0,,wheat,saddlebrown,1.017,['trial_opt2_shape'],[0.4989000000357606],1.0,2.0,2.0,0.4989000000357606,0.4989000000357606,2,1.0
test3,test3_stroop.csv,2,2020-01-01_00h00.00.000,stroop_artemis_2025.2.3,2025.2.4,59.88023952,Linux armv81,42.0,0.0,emotional,neutral,154.0,Neutx2_Pos,0.0,,number,saddlebrown,1.084,['trial_opt2_shape'],[0.46589999997615905],1.0,2.0,2.0,0.46589999997615905,0.46589999997615905,2,1.0
test3,test3_stroop.csv,2,2020-01-01_00h00.00.000,stroop_artemis_2025.2.3,2025.2.4,59.88023952,Linux armv81,43.0,0.0,emotional,positive,154.0,Neutx2_Pos,1.0,NeutPosSwitch,love,blue,1.184,['trial_opt1_shape'],[0.64910000002385],1.0,1.0,1.0,0.64910000002385,0.64910000002385,1,1.0
test3,test3_stroop.csv,2,2020-01-01_00h00.00.000,stroop_artemis_2025.2.3,2025.2.4,59.88023952,Linux armv81,44.0,0.0,emotional,neutral,155.0,Neutx4_Pos,1.0,,close,saddlebrown,1.15,['trial_opt2_shape'],[0.482300000011918],1.0,2.0,2.0,0.482300000011918,0.482300000011918,2,1.0
test3,test3_stroop.csv,2,2020-01-01_00h00.00.000,stroop_artemis_2025.2.3,2025.2.4,59.88023952,Linux armv81,45.0,0.0,emotional,neutral,155.0,Neutx4_Pos,0.0,,hour,saddlebrown,1.167,['trial_opt2_shape'],[0.6159000000357651],1.0,2.0,2.0,0.6159000000357651,0.6159000000357651,2,1.0
test3,test3_stroop.csv,2,2020-01-01_00h00.00.000,stroop_artemis_2025.2.3,2025.2.4,59.88023952,Linux armv81,46.0,0.0,emotional,positive,155.0,Neutx4_Pos,1.0,NeutPosSwitch,bright,hotpink,1.2,['trial_opt3_shape'],[0.49919999998807896],1.0,3.0,3.0,0.49919999998807896,0.49919999998807896,3,1.0
test3,test3_stroop.csv,2,2020-01-01_00h00.00.000,stroop_artemis_2025.2.3,2025.2.4,59.88023952,Linux armv81,47.0,0.0,emotional,neutral,156.0,Neutx3_Neg,1.0,,stomach,saddlebrown,1.034,['trial_opt2_shape'],[0.582499999999996],1.0,2.0,2.0,0.582499999999996,0.582499999999996,2,1.0
test3,test3_stroop.csv,2,2020-01-01_00h00.00.000,stroop_artemis_2025.2.3,2025.2.4,59.88023952,Linux armv81,48.0,0.0,emotional,neutral,156.0,Neutx3_Neg,0.0,,crowd,saddlebrown,1.0,['trial_opt2_shape'],[0.49919999998807896],1.0,2.0,2.0,0.49919999998807896,0.49919999998807896,2,1.0
test3,test3_stroop.csv,2,2020-01-01_00h00.00.000,stroop_artemis_2025.2.3,2025.2.4,59.88023952,Linux armv81,49.0,0.0,emotional,negative,156.0,Neutx3_Neg,1.0,NeutNegSwitch,pathetic,hotpink,1.1,['trial_opt3_shape'],[0.5321999999880802],1.0,3.0,3.0,0.5321999999880802,0.5321999999880802,3,1.0
test3,test3_stroop.csv,2,2020-01-01_00h00.00.000,stroop_artemis_2025.2.3,2025.2.4,59.88023952,Linux armv81,50.0,0.0,emotional,neutral,157.0,Neutx5_Neg,1.0,,sword,blue,1.117,['trial_opt1_shape'],[0.582499999999996],1.0,1.0,1.0,0.582499999999996,0.582499999999996,1,1.0
test3,test3_stroop.csv,2,2020-01-01_00h00.00.000,stroop_artemis_2025.2.3,2025.2.4,59.88023952,Linux armv81,51.0,0.0,emotional,neutral,157.0,Neutx5_Neg,0.0,,vote,blue,1.05,['trial_opt1_shape'],[0.4987999999523254],1.0,1.0,1.0,0.4987999999523254,0.4987999999523254,1,1.0
test3,test3_stroop.csv,2,2020-01-01_00h00.00.000,stroop_artemis_2025.2.3,2025.2.4,59.88023952,Linux armv81,52.0,0.0,emotional,negative,157.0,Neutx5_Neg,0.0,NeutNegNoSwitch,clumsy,blue,1.184,['trial_opt1_shape'],[0.4988999999761603],1.0,1.0,1.0,0.4988999999761603,0.4988999999761603,1,1.0
test3,test3_stroop.csv,2,2020-01-01_00h00.00.000,stroop_artemis_2025.2.3,2025.2.4,59.88023952,Linux armv81,53.0,0.0,emotional,neutral,158.0,Neutx3_Neg,1.0,,tiny,saddlebrown,1.084,['trial_opt2_shape'],[0.6484000000357639],1.0,2.0,2.0,0.6484000000357639,0.6484000000357639,2,1.0
test3,test3_stroop.csv,2,2020-01-01_00h00.00.000,stroop_artemis_2025.2.3,2025.2.4,59.88023952,Linux armv81,54.0,0.0,emotional,neutral,158.0,Neutx3_Neg,0.0,,existing,saddlebrown,1.2,['trial_opt2_shape'],[0.5825000000000102],1.0,2.0,2.0,0.5825000000000102,0.5825000000000102,2,1.0
test3,test3_stroop.csv,2,2020-01-01_00h00.00.000,stroop_artemis_2025.2.3,2025.2.4,59.88023952,Linux armv81,55.0,0.0,emotional,negative,158.0,Neutx3_Neg,0.0,NeutNegNoSwitch,inadequate,saddlebrown,1.017,['trial_opt2_shape'],[0.4486999999880794],1.0,2.0,2.0,0.4486999999880794,0.4486999999880794,2,1.0
test3,test3_stroop.csv,2,2020-01-01_00h00.00.000,stroop_artemis_2025.2.3,2025.2.4,59.88023952,Linux armv81,56.0,0.0,emotional,neutral,159.0,Neutx4_Neg,1.0,,unbutton,hotpink,1.034,['trial_opt3_shape'],[0.5156999999880725],1.0,3.0,3.0,0.5156999999880725,0.5156999999880725,3,1.0
test3,test3_stroop.csv,2,2020-01-01_00h00.00.000,stroop_artemis_2025.2.3,2025.2.4,59.88023952,Linux armv81,57.0,0.0,emotional,neutral,159.0,Neutx4_Neg,0.0,,sunscreen,hotpink,1.15,['trial_opt3_shape'],[0.4823999999761668],1.0,3.0,3.0,0.4823999999761668,0.4823999999761668,3,1.0
test3,test3_stroop.csv,2,2020-01-01_00h00.00.000,stroop_artemis_2025.2.3,2025.2.4,59.88023952,Linux armv81,58.0,0.0,emotional,negative,159.0,Neutx4_Neg,0.0,NeutNegNoSwitch,unimportant,hotpink,1.067,['trial_opt3_shape'],[0.48239999997615257],1.0,3.0,3.0,0.48239999997615257,0.48239999997615257,3,1.0
test3,test3_stroop.csv,2,2020-01-01_00h00.00.000,stroop_artemis_2025.2.3,2025.2.4,59.88023952,Linux armv81,59.0,0.0,emotional,positive,160.0,Posx2,1.0,,joke,blue,1.1,['trial_opt1_shape'],[0.4159999999999968],1.0,1.0,1.0,0.4159999999999968,0.4159999999999968,1,1.0
test3,test3_stroop.csv,2,2020-01-01_00h00.00.000,stroop_artemis_2025.2.3,2025.2.4,59.88023952,Linux armv81,60.0,0.0,emotional,positive,160.0,Posx2,0.0,PosNoSwitch,loyal,blue,1.134,['trial_opt1_shape'],[0.3323000000119265],1.0,1.0,1.0,0.3323000000119265,0.3323000000119265,1,1.0
test3,test3_stroop.csv,2,2020-01-01_00h00.00.000,stroop_artemis_2025.2.3,2025.2.4,59.88023952,Linux armv81,61.0,0.0,emotional,neutral,161.0,Neutx5_Pos,1.0,,topic,hotpink,1.0,['trial_opt3_shape'],[0.5658000000119188],1.0,3.0,3.0,0.5658000000119188,0.5658000000119188,3,1.0
test3,test3_stroop.csv,2,2020-01-01_00h00.00.000,stroop_artemis_2025.2.3,2025.2.4,59.88023952,Linux armv81,62.0,0.0,emotional,neutral,161.0,Neutx5_Pos,0.0,,graphic,hotpink,1.167,['trial_opt3_shape'],[0.46569999998808953],1.0,3.0,3.0,0.46569999998808953,0.46569999998808953,3,1.0
test3,test3_stroop.csv,2,2020-01-01_00h00.00.000,stroop_artemis_2025.2.3,2025.2.4,59.88023952,Linux armv81,63.0,0.0,emotional,positive,161.0,Neutx5_Pos,1.0,NeutPosSwitch,delighted,saddlebrown,1.117,['trial_opt2_shape'],[0.7155999999642404],1.0,2.0,2.0,0.7155999999642404,0.7155999999642404,2,1.0
test3,test3_stroop.csv,2,2020-01-01_00h00.00.000,stroop_artemis_2025.2.3,2025.2.4,59.88023952,Linux armv81,64.0,0.0,emotional,neutral,162.0,Neutx4_Pos,1.0,,sprint,blue,1.05,['trial_opt1_shape'],[0.5158999999761704],1.0,1.0,1.0,0.5158999999761704,0.5158999999761704,1,1.0
test3,test3_stroop.csv,2,2020-01-01_00h00.00.000,stroop_artemis_2025.2.3,2025.2.4,59.88023952,Linux armv81,65.0,0.0,emotional,neutral,162.0,Neutx4_Pos,0.0,,password,blue,1.034,['trial_opt1_shape'],[0.5822000000476635],1.0,1.0,1.0,0.5822000000476635,0.5822000000476635,1,1.0
test3,test3_stroop.csv,2,2020-01-01_00h00.00.000,stroop_artemis_2025.2.3,2025.2.4,59.88023952,Linux armv81,66.0,0.0,emotional,positive,162.0,Neutx4_Pos,1.0,NeutPosSwitch,friendship,saddlebrown,1.117,['trial_opt2_shape'],[0.5988999999761546],1.0,2.0,2.0,0.5988999999761546,0.5988999999761546,2,1.0
test3,test3_stroop.csv,2,2020-01-01_00h00.00.000,stroop_artemis_2025.2.3,2025.2.4,59.88023952,Linux armv81,67.0,0.0,emotional,neutral,163.0,Neutx4_Pos,1.0,,frame,blue,1.167,['trial_opt1_shape'],[0.41550000000000864],1.0,1.0,1.0,0.41550000000000864,0.41550000000000864,1,1.0
test3,test3_stroop.csv,2,2020-01-01_00h00.00.000,stroop_artemis_2025.2.3,2025.2.4,59.88023952,Linux armv81,68.0,0.0,emotional,neutral,164.0,Neutx4_Pos,0.0,,steer,blue,1.05,['trial_opt1_shape'],[0.6488000000119314],1.0,1.0,1.0,0.6488000000119314,0.6488000000119314,1,1.0
test3,test3_stroop.csv,2,2020-01-01_00h00.00.000,stroop_artemis_2025.2.3,2025.2.4,59.88023952,Linux armv81,69.0,0.0,emotional,positive,163.0,Neutx4_Pos,0.0,NeutPosNoSwitch,tranquil,blue,1.134,['trial_opt1_shape'],[0.5326000000238196],1.0,1.0,1.0,0.5326000000238196,0.5326000000238196,1,1.0
test3,test3_stroop.csv,2,2020-01-01_00h00.00.000,stroop_artemis_2025.2.3,2025.2.4,59.88023952,Linux armv81,70.0,0.0,emotional,neutral,164.0,Neutx1_Pos,1.0,,whiskers,hotpink,1.084,['trial_opt3_shape'],[0.648800000011903],1.0,3.0,3.0,0.648800000011903,0.648800000011903,3,1.0
test3,test3_stroop.csv,2,2020-01-01_00h00.00.000,stroop_artemis_2025.2.3,2025.2.4,59.88023952,Linux armv81,71.0,0.0,emotional,positive,164.0,Neutx1_Pos,1.0,NeutPosSwitch,embrace,saddlebrown,1.067,['trial_opt2_shape'],[0.6156000000238464],1.0,2.0,2.0,0.6156000000238464,0.6156000000238464,2,1.0
test3,test3_stroop.csv,2,2020-01-01_00h00.00.000,stroop_artemis_2025.2.3,2025.2.4,59.88023952,Linux armv81,72.0,0.0,emotional,negative,165.0,Negx4,1.0,,guilt,hotpink,1.15,['trial_opt3_shape'],[0.5823999999761611],1.0,3.0,3.0,0.5823999999761611,0.5823999999761611,3,1.0
test3,test3_stroop.csv,2,2020-01-01_00h00.00.000,stroop_artemis_2025.2.3,2025.2.4,59.88023952,Linux armv81,73.0,0.0,emotional,negative,165.0,Negx4,0.0,,blunder,hotpink,1.2,['trial_opt3_shape'],[0.48219999998809726],1.0,3.0,3.0,0.48219999998809726,0.48219999998809726,3,1.0
test3,test3_stroop.csv,2,2020-01-01_00h00.00.000,stroop_artemis_2025.2.3,2025.2.4,59.88023952,Linux armv81,74.0,0.0,emotional,negative,165.0,Negx4,0.0,NegNoSwitch,lazy,hotpink,1.184,['trial_opt3_shape'],[0.4654999999999916],1.0,3.0,3.0,0.4654999999999916,0.4654999999999916,3,1.0
test3,test3_stroop.csv,2,2020-01-01_00h00.00.000,stroop_artemis_2025.2.3,2025.2.4,59.88023952,Linux armv81,75.0,0.0,emotional,positive,166.0,Posx2,1.0,,vacation,blue,1.1,['trial_opt1_shape'],[0.54849999999999],1.0,1.0,1.0,0.54849999999999,0.54849999999999,1,1.0
test3,test3_stroop.csv,2,2020-01-01_00h00.00.000,stroop_artemis_2025.2.3,2025.2.4,59.88023952,Linux armv81,76.0,0.0,emotional,positive,166.0,Posx2,1.0,PosSwitch,talented,saddlebrown,1.0,['trial_opt2_shape'],[0.6156999999880668],1.0,2.0,2.0,0.6156999999880668,0.6156999999880668,2,1.0
test3,test3_stroop.csv,2,2020-01-01_00h00.00.000,stroop_artemis_2025.2.3,2025.2.4,59.88023952,Linux armv81,77.0,0.0,emotional,positive,167.0,Posx3,0.0,,secure,saddlebrown,1.017,['trial_opt2_shape'],[0.5657000000476842],1.0,2.0,2.0,0.5657000000476842,0.5657000000476842,2,1.0
test3,test3_stroop.csv,2,2020-01-01_00h00.00.000,stroop_artemis_2025.2.3,2025.2.4,59.88023952,Linux armv81,78.0,0.0,emotional,positive,167.0,Posx3,1.0,PosSwitch,lucky,hotpink,1.05,['trial_opt3_shape'],[0.6989999999999839],1.0,3.0,3.0,0.6989999999999839,0.6989999999999839,3,1.0
test3,test3_stroop.csv,2,2020-01-01_00h00.00.000,stroop_artemis_2025.2.3,2025.2.4,59.88023952,Linux armv81,79.0,0.0,emotional,neutral,168.0,Neutx4_Neg,1.0,,shop,blue,1.117,['trial_opt1_shape'],[0.5157000000476728],1.0,1.0,1.0,0.5157000000476728,0.5157000000476728,1,1.0
test3,test3_stroop.csv,2,2020-01-01_00h00.00.000,stroop_artemis_2025.2.3,2025.2.4,59.88023952,Linux armv81,80.0,0.0,emotional,neutral,168.0,Neutx4_Neg,0.0,,electricity,blue,1.034,['trial_opt1_shape'],[0.5660000000000025],1.0,1.0,1.0,0.5660000000000025,0.5660000000000025,1,1.0
test3,test3_stroop.csv,2,2020-01-01_00h00.00.000,stroop_artemis_2025.2.3,2025.2.4,59.88023952,Linux armv81,81.0,0.0,emotional,negative,168.0,Neutx4_Neg,0.0,NeutNegNoSwitch,pitiful,blue,1.184,['trial_opt1_shape'],[0.4491999999880818],1.0,1.0,1.0,0.4491999999880818,0.4491999999880818,1,1.0
test3,test3_stroop.csv,2,2020-01-01_00h00.00.000,stroop_artemis_2025.2.3,2025.2.4,59.88023952,Linux armv81,82.0,0.0,emotional,neutral,169.0,Neutx1_Neg,1.0,,deal,saddlebrown,1.1,['trial_opt2_shape'],[0.6316000000238375],1.0,2.0,2.0,0.6316000000238375,0.6316000000238375,2,1.0
test3,test3_stroop.csv,2,2020-01-01_00h00.00.000,stroop_artemis_2025.2.3,2025.2.4,59.88023952,Linux armv81,83.0,0.0,emotional,negative,169.0,Neutx1_Neg,1.0,NeutNegSwitch,sin,hotpink,1.2,['trial_opt3_shape'],[0.5823000000119123],1.0,3.0,3.0,0.5823000000119123,0.5823000000119123,3,1.0
test3,test3_stroop.csv,2,2020-01-01_00h00.00.000,stroop_artemis_2025.2.3,2025.2.4,59.88023952,Linux armv81,84.0,0.0,emotional,positive,170.0,Posx4,1.0,,cute,saddlebrown,1.017,['trial_opt2_shape'],[0.5489999999999782],1.0,2.0,2.0,0.5489999999999782,0.5489999999999782,2,1.0
test3,test3_stroop.csv,2,2020-01-01_00h00.00.000,stroop_artemis_2025.2.3,2025.2.4,59.88023952,Linux armv81,85.0,0.0,emotional,positive,170.0,Posx4,0.0,,sociable,saddlebrown,1.067,['trial_opt2_shape'],[0.5822999999523404],1.0,2.0,2.0,0.5822999999523404,0.5822999999523404,2,1.0
test3,test3_stroop.csv,2,2020-01-01_00h00.00.000,stroop_artemis_2025.2.3,2025.2.4,59.88023952,Linux armv81,86.0,0.0,emotional,positive,170.0,Posx4,1.0,PosSwitch,miracle,blue,1.134,['trial_opt1_shape'],[0.59880000001192],1.0,1.0,1.0,0.59880000001192,0.59880000001192,1,1.0
test3,test3_stroop.csv,2,2020-01-01_00h00.00.000,stroop_artemis_2025.2.3,2025.2.4,59.88023952,Linux armv81,87.0,0.0,emotional,neutral,171.0,Neutx1_Neg,1.0,,testify,saddlebrown,1.167,['trial_opt2_shape'],[0.6656000000238578],1.0,2.0,2.0,0.6656000000238578,0.6656000000238578,2,1.0
test3,test3_stroop.csv,2,2020-01-01_00h00.00.000,stroop_artemis_2025.2.3,2025.2.4,59.88023952,Linux armv81,88.0,0.0,emotional,negative,171.0,Neutx1_Neg,0.0,NeutNegNoSwitch,waste,saddlebrown,1.15,['trial_opt2_shape'],[0.6156000000238464],1.0,2.0,2.0,0.6156000000238464,0.6156000000238464,2,1.0
test3,test3_stroop.csv,2,2020-01-01_00h00.00.000,stroop_artemis_2025.2.3,2025.2.4,59.88023952,Linux armv81,89.0,0.0,emotional,negative,172.0,Negx3,0.0,,failure,saddlebrown,1.084,['trial_opt2_shape'],[0.4656000000238407],1.0,2.0,2.0,0.4656000000238407,0.4656000000238407,2,1.0
test3,test3_stroop.csv,2,2020-01-01_00h00.00.000,stroop_artemis_2025.2.3,2025.2.4,59.88023952,Linux armv81,90.0,0.0,emotional,negative,172.0,Negx3,0.0,NegNoSwitch,bitter,saddlebrown,1.0,['trial_opt2_shape'],[0.5488999999761575],1.0,2.0,2.0,0.5488999999761575,0.5488999999761575,2,1.0
test3,test3_stroop.csv,2,2020-01-01_00h00.00.000,stroop_artemis_2025.2.3,2025.2.4,59.88023952,Linux armv81,91.0,0.0,emotional,neutral,173.0,Neutx2_Pos,1.0,,term,hotpink,1.167,['trial_opt3_shape'],[0.5986999999880993],1.0,3.0,3.0,0.5986999999880993,0.5986999999880993,3,1.0
test3,test3_stroop.csv,2,2020-01-01_00h00.00.000,stroop_artemis_2025.2.3,2025.2.4,59.88023952,Linux armv81,92.0,0.0,emotional,neutral,173.0,Neutx2_Pos,0.0,,form,hotpink,1.117,['trial_opt3_shape'],[0.3821999999880745],1.0,3.0,3.0,0.3821999999880745,0.3821999999880745,3,1.0
test3,test3_stroop.csv,2,2020-01-01_00h00.00.000,stroop_artemis_2025.2.3,2025.2.4,59.88023952,Linux armv81,93.0,0.0,emotional,positive,173.0,Neutx2_Pos,0.0,NeutPosNoSwitch,noble,hotpink,1.184,['trial_opt3_shape'],[0.5153999999761538],1.0,3.0,3.0,0.5153999999761538,0.5153999999761538,3,1.0
test3,test3_stroop.csv,2,2020-01-01_00h00.00.000,stroop_artemis_2025.2.3,2025.2.4,59.88023952,Linux armv81,94.0,0.0,emotional,neutral,174.0,Neutx4_Neg,1.0,,kickoff,saddlebrown,1.05,['trial_opt2_shape'],[0.7819999999999823],1.0,2.0,2.0,0.7819999999999823,0.7819999999999823,2,1.0
test3,test3_stroop.csv,2,2020-01-01_00h00.00.000,stroop_artemis_2025.2.3,2025.2.4,59.88023952,Linux armv81,95.0,0.0,emotional,neutral,174.0,Neutx4_Neg,0.0,,verbal,saddlebrown,1.0,['trial_opt2_shape'],[0.815600000023835],1.0,2.0,2.0,0.815600000023835,0.815600000023835,2,1.0
test3,test3_stroop.csv,2,2020-01-01_00h00.00.000,stroop_artemis_2025.2.3,2025.2.4,59.88023952,Linux armv81,96.0,0.0,emotional,negative,174.0,Neutx4_Neg,1.0,NeutNegSwitch,foolish,hotpink,1.084,['trial_opt3_shape'],[0.7323000000119464],1.0,3.0,3.0,0.7323000000119464,0.7323000000119464,3,1.0
test3,test3_stroop.csv,2,2020-01-01_00h00.00.000,stroop_artemis_2025.2.3,2025.2.4,59.88023952,Linux armv81,97.0,0.0,emotional,neutral,175.0,Neutx3_Neg,1.0,,firecracker,blue,1.134,['trial_opt1_shape'],[0.5158000000119216],1.0,1.0,1.0,0.5158000000119216,0.5158000000119216,1,1.0
test3,test3_stroop.csv,2,2020-01-01_00h00.00.000,stroop_artemis_2025.2.3,2025.2.4,59.88023952,Linux armv81,98.0,0.0,emotional,neutral,175.0,Neutx3_Neg,0.0,,insect,blue,1.15,['trial_opt1_shape'],[0.59880000001192],1.0,1.0,1.0,0.59880000001192,0.59880000001192,1,1.0
test3,test3_stroop.csv,2,2020-01-01_00h00.00.000,stroop_artemis_2025.2.3,2025.2.4,59.88023952,Linux armv81,99.0,0.0,emotional,negative,175.0,Neutx3_Neg,1.0,NeutNegSwitch,ashamed,hotpink,1.034,['trial_opt3_shape'],[0.8323000000119123],1.0,3.0,3.0,0.8323000000119123,0.8323000000119123,3,1.0
test3,test3_stroop.csv,2,2020-01-01_00h00.00.000,stroop_artemis_2025.2.3,2025.2.4,59.88023952,Linux armv81,100.0,0.0,emotional,neutral,176.0,Neutx1_Pos,1.0,,greeting,saddlebrown,1.067,['trial_opt2_shape'],[0.6658000000118989],1.0,2.0,2.0,0.6658000000118989,0.6658000000118989,2,1.0
test3,test3_stroop.csv,2,2020-01-01_00h00.00.000,stroop_artemis_2025.2.3,2025.2.4,59.88023952,Linux armv81,101.0,0.0,emotional,positive,176.0,Neutx1_Pos,1.0,NeutPosSwitch,humorous,hotpink,1.2,['trial_opt3_shape'],[0.7489999999999952],1.0,3.0,3.0,0.7489999999999952,0.7489999999999952,3,1.0
test3,test3_stroop.csv,2,2020-01-01_00h00.00.000,stroop_artemis_2025.2.3,2025.2.4,59.88023952,Linux armv81,102.0,0.0,emotional,neutral,177.0,Neutx4_Pos,1.0,,ginger,saddlebrown,1.017,['trial_opt2_shape'],[0.7318999999761502],1.0,2.0,2.0,0.7318999999761502,0.7318999999761502,2,1.0
test3,test3_stroop.csv,2,2020-01-01_00h00.00.000,stroop_artemis_2025.2.3,2025.2.4,59.88023952,Linux armv81,103.0,0.0,emotional,neutral,177.0,Neutx4_Pos,0.0,,braid,saddlebrown,1.1,['trial_opt2_shape'],[0.7483999999761579],1.0,2.0,2.0,0.7483999999761579,0.7483999999761579,2,1.0
test3,test3_stroop.csv,2,2020-01-01_00h00.00.000,stroop_artemis_2025.2.3,2025.2.4,59.88023952,Linux armv81,104.0,0.0,emotional,positive,177.0,Neutx4_Pos,1.0,NeutPosSwitch,dream,hotpink,1.167,['trial_opt3_shape'],[0.5321000000238598],1.0,3.0,3.0,0.5321000000238598,0.5321000000238598,3,1.0
test3,test3_stroop.csv,2,2020-01-01_00h00.00.000,stroop_artemis_2025.2.3,2025.2.4,59.88023952,Linux armv81,105.0,0.0,emotional,neutral,178.0,Neutx1_Pos,1.0,,toolbox,blue,1.034,['trial_opt1_shape'],[0.565600000023835],1.0,1.0,1.0,0.565600000023835,0.565600000023835,1,1.0
test3,test3_stroop.csv,2,2020-01-01_00h00.00.000,stroop_artemis_2025.2.3,2025.2.4,59.88023952,Linux armv81,106.0,0.0,emotional,positive,178.0,Neutx1_Pos,0.0,NeutPosNoSwitch,colorful,blue,1.2,['trial_opt1_shape'],[0.46579999995233834],1.0,1.0,1.0,0.46579999995233834,0.46579999995233834,1,1.0
test3,test3_stroop.csv,2,2020-01-01_00h00.00.000,stroop_artemis_2025.2.3,2025.2.4,59.88023952,Linux armv81,107.0,0.0,emotional,neutral,179.0,Neutx4_Pos,1.0,,timer,saddlebrown,1.0,['trial_opt2_shape'],[0.632199999988103],1.0,2.0,2.0,0.632199999988103,0.632199999988103,2,1.0
test3,test3_stroop.csv,2,2020-01-01_00h00.00.000,stroop_artemis_2025.2.3,2025.2.4,59.88023952,Linux armv81,108.0,0.0,emotional,neutral,179.0,Neutx4_Pos,0.0,,creaking,saddlebrown,1.1,['trial_opt2_shape'],[0.5986000000238221],1.0,2.0,2.0,0.5986000000238221,0.5986000000238221,2,1.0
test3,test3_stroop.csv,2,2020-01-01_00h00.00.000,stroop_artemis_2025.2.3,2025.2.4,59.88023952,Linux armv81,109.0,0.0,emotional,positive,179.0,Neutx4_Pos,0.0,NeutPosNoSwitch,champion,saddlebrown,1.084,['trial_opt2_shape'],[0.5153999999761538],1.0,2.0,2.0,0.5153999999761538,0.5153999999761538,2,1.0
test3,test3_stroop.csv,2,2020-01-01_00h00.00.000,stroop_artemis_2025.2.3,2025.2.4,59.88023952,Linux armv81,110.0,0.0,emotional,neutral,180.0,Neutx2_Pos,1.0,,molecule,blue,1.134,['trial_opt1_shape'],[0.5151999999880559],1.0,1.0,1.0,0.5151999999880559,0.5151999999880559,1,1.0
test3,test3_stroop.csv,2,2020-01-01_00h00.00.000,stroop_artemis_2025.2.3,2025.2.4,59.88023952,Linux armv81,111.0,0.0,emotional,neutral,180.0,Neutx2_Pos,0.0,,gigantic,blue,1.117,['trial_opt1_shape'],[0.3989000000357805],1.0,1.0,1.0,0.3989000000357805,0.3989000000357805,1,1.0
test3,test3_stroop.csv,2,2020-01-01_00h00.00.000,stroop_artemis_2025.2.3,2025.2.4,59.88023952,Linux armv81,112.0,0.0,emotional,positive,180.0,Neutx2_Pos,1.0,NeutPosSwitch,sunshine,saddlebrown,1.05,['trial_opt2_shape'],[0.4490000000000123],1.0,2.0,2.0,0.4490000000000123,0.4490000000000123,2,1.0
test3,test3_stroop.csv,2,2020-01-01_00h00.00.000,stroop_artemis_2025.2.3,2025.2.4,59.88023952,Linux armv81,113.0,0.0,emotional,negative,181.0,Negx3,1.0,,despair,hotpink,1.017,['trial_opt3_shape'],[0.6320999999642254],1.0,3.0,3.0,0.6320999999642254,0.6320999999642254,3,1.0
test3,test3_stroop.csv,2,2020-01-01_00h00.00.000,stroop_artemis_2025.2.3,2025.2.4,59.88023952,Linux armv81,114.0,0.0,emotional,negative,181.0,Negx3,0.0,,sad,hotpink,1.067,['trial_opt3_shape'],[0.6818999999761672],1.0,3.0,3.0,0.6818999999761672,0.6818999999761672,3,1.0
test3,test3_stroop.csv,2,2020-01-01_00h00.00.000,stroop_artemis_2025.2.3,2025.2.4,59.88023952,Linux armv81,115.0,0.0,emotional,negative,181.0,Negx3,0.0,NegNoSwitch,idiot,hotpink,1.184,['trial_opt3_shape'],[0.5488000000119087],1.0,3.0,3.0,0.5488000000119087,0.5488000000119087,3,1.0
test3,test3_stroop.csv,2,2020-01-01_00h00.00.000,stroop_artemis_2025.2.3,2025.2.4,59.88023952,Linux armv81,116.0,0.0,emotional,neutral,182.0,Neutx3_Neg,1.0,,guess,blue,1.15,['trial_opt1_shape'],[0.6821000000238371],1.0,1.0,1.0,0.6821000000238371,0.6821000000238371,1,1.0
test3,test3_stroop.csv,2,2020-01-01_00h00.00.000,stroop_artemis_2025.2.3,2025.2.4,59.88023952,Linux armv81,117.0,0.0,emotional,neutral,182.0,Neutx3_Neg,0.0,,fridge,blue,1.167,['trial_opt1_shape'],[0.5491000000238557],1.0,1.0,1.0,0.5491000000238557,0.5491000000238557,1,1.0
test3,test3_stroop.csv,2,2020-01-01_00h00.00.000,stroop_artemis_2025.2.3,2025.2.4,59.88023952,Linux armv81,118.0,0.0,emotional,negative,182.0,Neutx3_Neg,0.0,NeutNegNoSwitch,mad,blue,1.034,['trial_opt1_shape'],[0.5818999999761445],1.0,1.0,1.0,0.5818999999761445,0.5818999999761445,1,1.0
test3,test3_stroop.csv,2,2020-01-01_00h00.00.000,stroop_artemis_2025.2.3,2025.2.4,59.88023952,Linux armv81,119.0,0.0,emotional,neutral,183.0,Neutx5_Neg,1.0,,tab,hotpink,1.017,['trial_opt3_shape'],[0.6156000000238464],1.0,3.0,3.0,0.6156000000238464,0.6156000000238464,3,1.0
test3,test3_stroop.csv,2,2020-01-01_00h00.00.000,stroop_artemis_2025.2.3,2025.2.4,59.88023952,Linux armv81,120.0,0.0,emotional,neutral,183.0,Neutx5_Neg,0.0,,invite,hotpink,1.134,['trial_opt3_shape'],[0.5823000000119407],1.0,3.0,3.0,0.5823000000119407,0.5823000000119407,3,1.0
test3,test3_stroop.csv,2,2020-01-01_00h00.00.000,stroop_artemis_2025.2.3,2025.2.4,59.88023952,Linux armv81,121.0,0.0,emotional,negative,183.0,Neutx5_Neg,0.0,NeutNegNoSwitch,cancer,hotpink,1.084,['trial_opt3_shape'],[0.4988000000118973],1.0,3.0,3.0,0.4988000000118973,0.4988000000118973,3,1.0
test3,test3_stroop.csv,2,2020-01-01_00h00.00.000,stroop_artemis_2025.2.3,2025.2.4,59.88023952,Linux armv81,122.0,0.0,emotional,neutral,184.0,Neutx2_Neg,1.0,,devour,saddlebrown,1.15,['trial_opt2_shape'],[0.582299999952312],1.0,2.0,2.0,0.582299999952312,0.582299999952312,2,1.0
test3,test3_stroop.csv,2,2020-01-01_00h00.00.000,stroop_artemis_2025.2.3,2025.2.4,59.88023952,Linux armv81,123.0,0.0,emotional,neutral,184.0,Neutx2_Neg,0.0,,row,saddlebrown,1.1,['trial_opt2_shape'],[0.4486000000238448],1.0,2.0,2.0,0.4486000000238448,0.4486000000238448,2,1.0
test3,test3_stroop.csv,2,2020-01-01_00h00.00.000,stroop_artemis_2025.2.3,2025.2.4,59.88023952,Linux armv81,124.0,0.0,emotional,negative,184.0,Neutx2_Neg,0.0,NeutNegNoSwitch,death,saddlebrown,1.184,['trial_opt2_shape'],[0.4153000000119391],1.0,2.0,2.0,0.4153000000119391,0.4153000000119391,2,1.0
test3,test3_stroop.csv,2,2020-01-01_00h00.00.000,stroop_artemis_2025.2.3,2025.2.4,59.88023952,Linux armv81,125.0,0.0,emotional,negative,185.0,Negx3,0.0,,dumb,saddlebrown,1.2,['trial_opt2_shape'],[0.4656000000238407],1.0,2.0,2.0,0.4656000000238407,0.4656000000238407,2,1.0
test3,test3_stroop.csv,2,2020-01-01_00h00.00.000,stroop_artemis_2025.2.3,2025.2.4,59.88023952,Linux armv81,126.0,0.0,emotional,negative,185.0,Negx3,1.0,NegSwitch,insult,blue,1.05,['trial_opt1_shape'],[0.515500000000003],1.0,1.0,1.0,0.515500000000003,0.515500000000003,1,1.0
test3,test3_stroop.csv,2,2020-01-01_00h00.00.000,stroop_artemis_2025.2.3,2025.2.4,59.88023952,Linux armv81,127.0,0.0,emotional,positive,186.0,Posx2,1.0,,dignified,saddlebrown,1.067,['trial_opt2_shape'],[0.6651000000238412],1.0,2.0,2.0,0.6651000000238412,0.6651000000238412,2,1.0
test3,test3_stroop.csv,2,2020-01-01_00h00.00.000,stroop_artemis_2025.2.3,2025.2.4,59.88023952,Linux armv81,128.0,0.0,emotional,positive,186.0,Posx2,1.0,PosSwitch,free,hotpink,1.117,['trial_opt3_shape'],[0.5985000000000014],1.0,3.0,3.0,0.5985000000000014,0.5985000000000014,3,1.0
test3,test3_stroop.csv,2,2020-01-01_00h00.00.000,stroop_artemis_2025.2.3,2025.2.4,59.88023952,Linux armv81,129.0,0.0,emotional,neutral,187.0,Neutx4_Pos,1.0,,sharp,saddlebrown,1.0,['trial_opt2_shape'],[0.6986999999880652],1.0,2.0,2.0,0.6986999999880652,0.6986999999880652,2,1.0
test3,test3_stroop.csv,2,2020-01-01_00h00.00.000,stroop_artemis_2025.2.3,2025.2.4,59.88023952,Linux armv81,130.0,0.0,emotional,neutral,187.0,Neutx4_Pos,0.0,,pointy,saddlebrown,1.0,['trial_opt2_shape'],[0.5491000000238273],1.0,2.0,2.0,0.5491000000238273,0.5491000000238273,2,1.0
test3,test3_stroop.csv,2,2020-01-01_00h00.00.000,stroop_artemis_2025.2.3,2025.2.4,59.88023952,Linux armv81,131.0,0.0,emotional,positive,187.0,Neutx4_Pos,1.0,NeutPosSwitch,hero,blue,1.1,[None],[0.5483000000119205],1.0,,,0.5483000000119205,0.5483000000119205,1,
test3,test3_stroop.csv,2,2020-01-01_00h00.00.000,stroop_artemis_2025.2.3,2025.2.4,59.88023952,Linux armv81,132.0,0.0,emotional,positive,188.0,Posx4,0.0,,wealth,blue,1.184,['trial_opt1_shape'],[0.5655999999642347],1.0,1.0,1.0,0.5655999999642347,0.5655999999642347,1,1.0
test3,test3_stroop.csv,2,2020-01-01_00h00.00.000,stroop_artemis_2025.2.3,2025.2.4,59.88023952,Linux armv81,133.0,0.0,emotional,positive,188.0,Posx4,1.0,PosSwitch,trust,hotpink,1.05,['trial_opt3_shape'],[0.5321000000238314],1.0,3.0,3.0,0.5321000000238314,0.5321000000238314,3,1.0
test3,test3_stroop.csv,2,2020-01-01_00h00.00.000,stroop_artemis_2025.2.3,2025.2.4,59.88023952,Linux armv81,0.0,1.0,classic,neutral,44.0,NI,,,XXX,blue,1.034,['trial_opt1_shape'],[0.7980999999642506],1.0,1.0,1.0,0.7980999999642506,0.7980999999642506,1,1.0
test3,test3_stroop.csv,2,2020-01-01_00h00.00.000,stroop_artemis_2025.2.3,2025.2.4,59.88023952,Linux armv81,1.0,1.0,classic,incongruent,44.0,NI,,,BROWN,hotpink,1.017,['trial_opt3_shape'],[0.5806999999880702],1.0,3.0,3.0,0.5806999999880702,0.5806999999880702,3,1.0
test3,test3_stroop.csv,2,2020-01-01_00h00.00.000,stroop_artemis_2025.2.3,2025.2.4,59.88023952,Linux armv81,2.0,1.0,classic,congruent,45.0,C6I,,,BLUE,blue,1.117,['trial_opt1_shape'],[0.4970999999642345],1.0,1.0,1.0,0.4970999999642345,0.4970999999642345,1,1.0
test3,test3_stroop.csv,2,2020-01-01_00h00.00.000,stroop_artemis_2025.2.3,2025.2.4,59.88023952,Linux armv81,3.0,1.0,classic,congruent,45.0,C6I,,,BROWN,saddlebrown,1.067,['trial_opt2_shape'],[0.6155999999642177],1.0,2.0,2.0,0.6155999999642177,0.6155999999642177,2,1.0
test3,test3_stroop.csv,2,2020-01-01_00h00.00.000,stroop_artemis_2025.2.3,2025.2.4,59.88023952,Linux armv81,4.0,1.0,classic,congruent,45.0,C6I,,,PINK,hotpink,1.167,['trial_opt3_shape'],[0.5303999999761402],1.0,3.0,3.0,0.5303999999761402,0.5303999999761402,3,1.0
test3,test3_stroop.csv,2,2020-01-01_00h00.00.000,stroop_artemis_2025.2.3,2025.2.4,59.88023952,Linux armv81,5.0,1.0,classic,congruent,45.0,C6I,,,BLUE,blue,1.2,['trial_opt1_shape'],[0.6305999999642324],1.0,1.0,1.0,0.6305999999642324,0.6305999999642324,1,1.0
test3,test3_stroop.csv,2,2020-01-01_00h00.00.000,stroop_artemis_2025.2.3,2025.2.4,59.88023952,Linux armv81,6.0,1.0,classic,congruent,45.0,C6I,,,PINK,hotpink,1.134,['trial_opt3_shape'],[0.5136999999880913],1.0,3.0,3.0,0.5136999999880913,0.5136999999880913,3,1.0
test3,test3_stroop.csv,2,2020-01-01_00h00.00.000,stroop_artemis_2025.2.3,2025.2.4,59.88023952,Linux armv81,7.0,1.0,classic,congruent,45.0,C6I,,,BROWN,saddlebrown,1.084,['trial_opt2_shape'],[0.6477999999523263],1.0,2.0,2.0,0.6477999999523263,0.6477999999523263,2,1.0
test3,test3_stroop.csv,2,2020-01-01_00h00.00.000,stroop_artemis_2025.2.3,2025.2.4,59.88023952,Linux armv81,8.0,1.0,classic,incongruent,45.0,C6I,,,BLUE,saddlebrown,1.15,['trial_opt2_shape'],[0.4303999999761743],1.0,2.0,2.0,0.4303999999761743,0.4303999999761743,2,1.0
test3,test3_stroop.csv,2,2020-01-01_00h00.00.000,stroop_artemis_2025.2.3,2025.2.4,59.88023952,Linux armv81,9.0,1.0,classic,neutral,46.0,N3I,,,XXXX,hotpink,1.0,['trial_opt3_shape'],[0.5465999999642293],1.0,3.0,3.0,0.5465999999642293,0.5465999999642293,3,1.0
test3,test3_stroop.csv,2,2020-01-01_00h00.00.000,stroop_artemis_2025.2.3,2025.2.4,59.88023952,Linux armv81,10.0,1.0,classic,neutral,46.0,N3I,,,XXXXX,saddlebrown,1.15,['trial_opt2_shape'],[0.6803999999761459],1.0,2.0,2.0,0.6803999999761459,0.6803999999761459,2,1.0
test3,test3_stroop.csv,2,2020-01-01_00h00.00.000,stroop_artemis_2025.2.3,2025.2.4,59.88023952,Linux armv81,11.0,1.0,classic,neutral,46.0,N3I,,,XXX,blue,1.1,['trial_opt1_shape'],[0.41450000000000387],1.0,1.0,1.0,0.41450000000000387,0.41450000000000387,1,1.0
test3,test3_stroop.csv,2,2020-01-01_00h00.00.000,stroop_artemis_2025.2.3,2025.2.4,59.88023952,Linux armv81,12.0,1.0,classic,incongruent,46.0,N3I,,,PINK,blue,1.067,['trial_opt1_shape'],[0.5975999999642454],1.0,1.0,1.0,0.5975999999642454,0.5975999999642454,1,1.0
test3,test3_stroop.csv,2,2020-01-01_00h00.00.000,stroop_artemis_2025.2.3,2025.2.4,59.88023952,Linux armv81,13.0,1.0,classic,congruent,47.0,C3I,,,BROWN,saddlebrown,1.084,['trial_opt2_shape'],[0.5801000000238332],1.0,2.0,2.0,0.5801000000238332,0.5801000000238332,2,1.0
test3,test3_stroop.csv,2,2020-01-01_00h00.00.000,stroop_artemis_2025.2.3,2025.2.4,59.88023952,Linux armv81,14.0,1.0,classic,congruent,47.0,C3I,,,BLUE,blue,1.184,['trial_opt1_shape'],[0.5825000000000102],1.0,1.0,1.0,0.5825000000000102,0.5825000000000102,1,1.0
test3,test3_stroop.csv,2,2020-01-01_00h00.00.000,stroop_artemis_2025.2.3,2025.2.4,59.88023952,Linux armv81,15.0,1.0,classic,congruent,47.0,C3I,,,PINK,hotpink,1.2,['trial_opt3_shape'],[0.5128000000119357],1.0,3.0,3.0,0.5128000000119357,0.5128000000119357,3,1.0
test3,test3_stroop.csv,2,2020-01-01_00h00.00.000,stroop_artemis_2025.2.3,2025.2.4,59.88023952,Linux armv81,16.0,1.0,classic,incongruent,47.0,C3I,,,BLUE,hotpink,1.117,['trial_opt3_shape'],[0.36419999998807384],1.0,3.0,3.0,0.36419999998807384,0.36419999998807384,3,1.0
test3,test3_stroop.csv,2,2020-01-01_00h00.00.000,stroop_artemis_2025.2.3,2025.2.4,59.88023952,Linux armv81,17.0,1.0,classic,congruent,48.0,C7I,,,BLUE,blue,1.034,['trial_opt1_shape'],[0.8483000000119318],1.0,1.0,1.0,0.8483000000119318,0.8483000000119318,1,1.0
test3,test3_stroop.csv,2,2020-01-01_00h00.00.000,stroop_artemis_2025.2.3,2025.2.4,59.88023952,Linux armv81,18.0,1.0,classic,congruent,48.0,C7I,,,BROWN,saddlebrown,1.167,['trial_opt2_shape'],[0.5476999999880832],1.0,2.0,2.0,0.5476999999880832,0.5476999999880832,2,1.0
test3,test3_stroop.csv,2,2020-01-01_00h00.00.000,stroop_artemis_2025.2.3,2025.2.4,59.88023952,Linux armv81,19.0,1.0,classic,congruent,48.0,C7I,,,PINK,hotpink,1.05,['trial_opt3_shape'],[0.5636999999880743],1.0,3.0,3.0,0.5636999999880743,0.5636999999880743,3,1.0
test3,test3_stroop.csv,2,2020-01-01_00h00.00.000,stroop_artemis_2025.2.3,2025.2.4,59.88023952,Linux armv81,20.0,1.0,classic,congruent,48.0,C7I,,,BROWN,saddlebrown,1.017,['trial_opt2_shape'],[0.5636999999880743],1.0,2.0,2.0,0.5636999999880743,0.5636999999880743,2,1.0
test3,test3_stroop.csv,2,2020-01-01_00h00.00.000,stroop_artemis_2025.2.3,2025.2.4,59.88023952,Linux armv81,21.0,1.0,classic,congruent,48.0,C7I,,,PINK,hotpink,1.134,['trial_opt3_shape'],[0.5816000000237977],1.0,3.0,3.0,0.5816000000237977,0.5816000000237977,3,1.0
test3,test3_stroop.csv,2,2020-01-01_00h00.00.000,stroop_artemis_2025.2.3,2025.2.4,59.88023952,Linux armv81,22.0,1.0,classic,congruent,48.0,C7I,,,BLUE,blue,1.15,['trial_opt1_shape'],[0.5639999999999645],1.0,1.0,1.0,0.5639999999999645,0.5639999999999645,1,1.0
test3,test3_stroop.csv,2,2020-01-01_00h00.00.000,stroop_artemis_2025.2.3,2025.2.4,59.88023952,Linux armv81,23.0,1.0,classic,congruent,48.0,C7I,,,BROWN,saddlebrown,1.134,['trial_opt2_shape'],[0.5803000000119027],1.0,2.0,2.0,0.5803000000119027,0.5803000000119027,2,1.0
test3,test3_stroop.csv,2,2020-01-01_00h00.00.000,stroop_artemis_2025.2.3,2025.2.4,59.88023952,Linux armv81,24.0,1.0,classic,incongruent,48.0,C7I,,,PINK,saddlebrown,1.017,['trial_opt2_shape'],[0.49960000002386096],1.0,2.0,2.0,0.49960000002386096,0.49960000002386096,2,1.0
test3,test3_stroop.csv,2,2020-01-01_00h00.00.000,stroop_artemis_2025.2.3,2025.2.4,59.88023952,Linux armv81,25.0,1.0,classic,neutral,49.0,NI,,,XXXXX,saddlebrown,1.184,['trial_opt2_shape'],[0.4818000000119582],1.0,2.0,2.0,0.4818000000119582,0.4818000000119582,2,1.0
test3,test3_stroop.csv,2,2020-01-01_00h00.00.000,stroop_artemis_2025.2.3,2025.2.4,59.88023952,Linux armv81,26.0,1.0,classic,incongruent,49.0,NI,,,BROWN,blue,1.2,['trial_opt1_shape'],[0.6476999999881059],1.0,1.0,1.0,0.6476999999881059,0.6476999999881059,1,1.0
test3,test3_stroop.csv,2,2020-01-01_00h00.00.000,stroop_artemis_2025.2.3,2025.2.4,59.88023952,Linux armv81,27.0,1.0,classic,congruent,50.0,C2I,,,PINK,hotpink,1.034,['trial_opt3_shape'],[0.5469999999999686],1.0,3.0,3.0,0.5469999999999686,0.5469999999999686,3,1.0
test3,test3_stroop.csv,2,2020-01-01_00h00.00.000,stroop_artemis_2025.2.3,2025.2.4,59.88023952,Linux armv81,28.0,1.0,classic,congruent,50.0,C2I,,,BLUE,blue,1.067,['trial_opt1_shape'],[0.41470000004773055],1.0,1.0,1.0,0.41470000004773055,0.41470000004773055,1,1.0
test3,test3_stroop.csv,2,2020-01-01_00h00.00.000,stroop_artemis_2025.2.3,2025.2.4,59.88023952,Linux armv81,29.0,1.0,classic,incongruent,50.0,C2I,,,BROWN,blue,1.117,['trial_opt1_shape'],[0.5147999999523449],1.0,1.0,1.0,0.5147999999523449,0.5147999999523449,1,1.0
test3,test3_stroop.csv,2,2020-01-01_00h00.00.000,stroop_artemis_2025.2.3,2025.2.4,59.88023952,Linux armv81,30.0,1.0,classic,congruent,51.0,CI,,,BROWN,saddlebrown,1.1,['trial_opt2_shape'],[0.4987000000476769],1.0,2.0,2.0,0.4987000000476769,0.4987000000476769,2,1.0
test3,test3_stroop.csv,2,2020-01-01_00h00.00.000,stroop_artemis_2025.2.3,2025.2.4,59.88023952,Linux armv81,31.0,1.0,classic,incongruent,51.0,CI,,,BLUE,saddlebrown,1.0,['trial_opt2_shape'],[0.6469000000357141],1.0,2.0,2.0,0.6469000000357141,0.6469000000357141,2,1.0
test3,test3_stroop.csv,2,2020-01-01_00h00.00.000,stroop_artemis_2025.2.3,2025.2.4,59.88023952,Linux armv81,32.0,1.0,classic,congruent,52.0,C3I,,,PINK,hotpink,1.084,['trial_opt1_shape'],[0.44700000000000273],1.0,1.0,1.0,0.44700000000000273,0.44700000000000273,3,0.0
test3,test3_stroop.csv,2,2020-01-01_00h00.00.000,stroop_artemis_2025.2.3,2025.2.4,59.88023952,Linux armv81,33.0,1.0,classic,congruent,52.0,C3I,,,BLUE,blue,1.167,['trial_opt1_shape'],[0.5640000000000214],1.0,1.0,1.0,0.5640000000000214,0.5640000000000214,1,1.0
test3,test3_stroop.csv,2,2020-01-01_00h00.00.000,stroop_artemis_2025.2.3,2025.2.4,59.88023952,Linux armv81,34.0,1.0,classic,congruent,52.0,C3I,,,BROWN,saddlebrown,1.05,['trial_opt2_shape'],[0.6653999999761595],1.0,2.0,2.0,0.6653999999761595,0.6653999999761595,2,1.0
test3,test3_stroop.csv,2,2020-01-01_00h00.00.000,stroop_artemis_2025.2.3,2025.2.4,59.88023952,Linux armv81,35.0,1.0,classic,incongruent,52.0,C3I,,,PINK,blue,1.067,['trial_opt1_shape'],[0.7646999999880677],1.0,1.0,1.0,0.7646999999880677,0.7646999999880677,1,1.0
test3,test3_stroop.csv,2,2020-01-01_00h00.00.000,stroop_artemis_2025.2.3,2025.2.4,59.88023952,Linux armv81,36.0,1.0,classic,congruent,53.0,C2I,,,BLUE,blue,1.167,['trial_opt1_shape'],[0.5314999999999941],1.0,1.0,1.0,0.5314999999999941,0.5314999999999941,1,1.0
test3,test3_stroop.csv,2,2020-01-01_00h00.00.000,stroop_artemis_2025.2.3,2025.2.4,59.88023952,Linux armv81,37.0,1.0,classic,congruent,53.0,C2I,,,PINK,hotpink,1.034,['trial_opt3_shape'],[0.58039999997618],1.0,3.0,3.0,0.58039999997618,0.58039999997618,3,1.0
test3,test3_stroop.csv,2,2020-01-01_00h00.00.000,stroop_artemis_2025.2.3,2025.2.4,59.88023952,Linux armv81,38.0,1.0,classic,incongruent,53.0,C2I,,,PINK,saddlebrown,1.017,['trial_opt2_shape'],[0.6645000000000323],1.0,2.0,2.0,0.6645000000000323,0.6645000000000323,2,1.0
test3,test3_stroop.csv,2,2020-01-01_00h00.00.000,stroop_artemis_2025.2.3,2025.2.4,59.88023952,Linux armv81,39.0,1.0,classic,incongruent,54.0,I2,,,BROWN,hotpink,1.134,['trial_opt3_shape'],[0.896900000035771],1.0,3.0,3.0,0.896900000035771,0.896900000035771,3,1.0
test3,test3_stroop.csv,2,2020-01-01_00h00.00.000,stroop_artemis_2025.2.3,2025.2.4,59.88023952,Linux armv81,40.0,1.0,classic,congruent,55.0,C4I,,,BROWN,saddlebrown,1.117,['trial_opt2_shape'],[0.6651000000238128],1.0,2.0,2.0,0.6651000000238128,0.6651000000238128,2,1.0
test3,test3_stroop.csv,2,2020-01-01_00h00.00.000,stroop_artemis_2025.2.3,2025.2.4,59.88023952,Linux armv81,41.0,1.0,classic,congruent,55.0,C4I,,,BLUE,blue,1.184,['trial_opt1_shape'],[0.480800000011925],1.0,1.0,1.0,0.480800000011925,0.480800000011925,1,1.0
test3,test3_stroop.csv,2,2020-01-01_00h00.00.000,stroop_artemis_2025.2.3,2025.2.4,59.88023952,Linux armv81,42.0,1.0,classic,congruent,55.0,C4I,,,PINK,hotpink,1.15,['trial_opt3_shape'],[0.64730000001191],1.0,3.0,3.0,0.64730000001191,0.64730000001191,3,1.0
test3,test3_stroop.csv,2,2020-01-01_00h00.00.000,stroop_artemis_2025.2.3,2025.2.4,59.88023952,Linux armv81,43.0,1.0,classic,congruent,55.0,C4I,,,BLUE,blue,1.0,['trial_opt1_shape'],[0.6636999999880686],1.0,1.0,1.0,0.6636999999880686,0.6636999999880686,1,1.0
test3,test3_stroop.csv,2,2020-01-01_00h00.00.000,stroop_artemis_2025.2.3,2025.2.4,59.88023952,Linux armv81,44.0,1.0,classic,incongruent,55.0,C4I,,,BLUE,hotpink,1.2,['trial_opt3_shape'],[0.6326999999880627],1.0,3.0,3.0,0.6326999999880627,0.6326999999880627,3,1.0
test3,test3_stroop.csv,2,2020-01-01_00h00.00.000,stroop_artemis_2025.2.3,2025.2.4,59.88023952,Linux armv81,45.0,1.0,classic,congruent,56.0,C2I,,,PINK,hotpink,1.1,['trial_opt3_shape'],[0.5308000000118795],1.0,3.0,3.0,0.5308000000118795,0.5308000000118795,3,1.0
test3,test3_stroop.csv,2,2020-01-01_00h00.00.000,stroop_artemis_2025.2.3,2025.2.4,59.88023952,Linux armv81,46.0,1.0,classic,congruent,56.0,C2I,,,BROWN,saddlebrown,1.05,['trial_opt2_shape'],[0.6803999999761459],1.0,2.0,2.0,0.6803999999761459,0.6803999999761459,2,1.0
test3,test3_stroop.csv,2,2020-01-01_00h00.00.000,stroop_artemis_2025.2.3,2025.2.4,59.88023952,Linux armv81,47.0,1.0,classic,incongruent,56.0,C2I,,,PINK,saddlebrown,1.084,['trial_opt2_shape'],[0.6972999999522926],1.0,2.0,2.0,0.6972999999522926,0.6972999999522926,2,1.0
test3,test3_stroop.csv,2,2020-01-01_00h00.00.000,stroop_artemis_2025.2.3,2025.2.4,59.88023952,Linux armv81,48.0,1.0,classic,neutral,57.0,NI,,,XXXX,hotpink,1.167,['trial_opt3_shape'],[0.563800000011895],1.0,3.0,3.0,0.563800000011895,0.563800000011895,3,1.0
test3,test3_stroop.csv,2,2020-01-01_00h00.00.000,stroop_artemis_2025.2.3,2025.2.4,59.88023952,Linux armv81,49.0,1.0,classic,incongruent,57.0,NI,,,BROWN,blue,1.2,['trial_opt1_shape'],[0.4136999999880686],1.0,1.0,1.0,0.4136999999880686,0.4136999999880686,1,1.0
test3,test3_stroop.csv,2,2020-01-01_00h00.00.000,stroop_artemis_2025.2.3,2025.2.4,59.88023952,Linux armv81,50.0,1.0,classic,congruent,58.0,C3I,,,BLUE,blue,1.067,['trial_opt1_shape'],[0.5811999999880868],1.0,1.0,1.0,0.5811999999880868,0.5811999999880868,1,1.0
test3,test3_stroop.csv,2,2020-01-01_00h00.00.000,stroop_artemis_2025.2.3,2025.2.4,59.88023952,Linux armv81,51.0,1.0,classic,congruent,58.0,C3I,,,PINK,hotpink,1.15,['trial_opt3_shape'],[0.5506999999881259],1.0,3.0,3.0,0.5506999999881259,0.5506999999881259,3,1.0
test3,test3_stroop.csv,2,2020-01-01_00h00.00.000,stroop_artemis_2025.2.3,2025.2.4,59.88023952,Linux armv81,52.0,1.0,classic,congruent,58.0,C3I,,,BROWN,saddlebrown,1.034,['trial_opt2_shape'],[0.6309000000357514],1.0,2.0,2.0,0.6309000000357514,0.6309000000357514,2,1.0
test3,test3_stroop.csv,2,2020-01-01_00h00.00.000,stroop_artemis_2025.2.3,2025.2.4,59.88023952,Linux armv81,53.0,1.0,classic,incongruent,58.0,C3I,,,BROWN,hotpink,1.084,['trial_opt3_shape'],[0.6645000000000323],1.0,3.0,3.0,0.6645000000000323,0.6645000000000323,3,1.0
test3,test3_stroop.csv,2,2020-01-01_00h00.00.000,stroop_artemis_2025.2.3,2025.2.4,59.88023952,Linux armv81,54.0,1.0,classic,congruent,59.0,C6I,,,BROWN,saddlebrown,1.117,['trial_opt2_shape'],[0.5817000000476469],1.0,2.0,2.0,0.5817000000476469,0.5817000000476469,2,1.0
test3,test3_stroop.csv,2,2020-01-01_00h00.00.000,stroop_artemis_2025.2.3,2025.2.4,59.88023952,Linux armv81,55.0,1.0,classic,congruent,59.0,C6I,,,BLUE,blue,1.134,['trial_opt1_shape'],[0.41419999998811363],1.0,1.0,1.0,0.41419999998811363,0.41419999998811363,1,1.0
test3,test3_stroop.csv,2,2020-01-01_00h00.00.000,stroop_artemis_2025.2.3,2025.2.4,59.88023952,Linux armv81,56.0,1.0,classic,congruent,59.0,C6I,,,PINK,hotpink,1.0,['trial_opt3_shape'],[0.5471000000238746],1.0,3.0,3.0,0.5471000000238746,0.5471000000238746,3,1.0
test3,test3_stroop.csv,2,2020-01-01_00h00.00.000,stroop_artemis_2025.2.3,2025.2.4,59.88023952,Linux armv81,57.0,1.0,classic,congruent,59.0,C6I,,,BROWN,saddlebrown,1.017,['trial_opt2_shape'],[0.6306999999880532],1.0,2.0,2.0,0.6306999999880532,0.6306999999880532,2,1.0
test3,test3_stroop.csv,2,2020-01-01_00h00.00.000,stroop_artemis_2025.2.3,2025.2.4,59.88023952,Linux armv81,58.0,1.0,classic,congruent,59.0,C6I,,,PINK,hotpink,1.184,['trial_opt3_shape'],[0.5978000000119437],1.0,3.0,3.0,0.5978000000119437,0.5978000000119437,3,1.0
test3,test3_stroop.csv,2,2020-01-01_00h00.00.000,stroop_artemis_2025.2.3,2025.2.4,59.88023952,Linux armv81,59.0,1.0,classic,congruent,59.0,C6I,,,BLUE,blue,1.05,['trial_opt1_shape'],[0.4479999999999791],1.0,1.0,1.0,0.4479999999999791,0.4479999999999791,1,1.0
test3,test3_stroop.csv,2,2020-01-01_00h00.00.000,stroop_artemis_2025.2.3,2025.2.4,59.88023952,Linux armv81,60.0,1.0,classic,incongruent,59.0,C6I,,,PINK,blue,1.1,['trial_opt1_shape'],[0.43080000001191365],1.0,1.0,1.0,0.43080000001191365,0.43080000001191365,1,1.0
test3,test3_stroop.csv,2,2020-01-01_00h00.00.000,stroop_artemis_2025.2.3,2025.2.4,59.88023952,Linux armv81,61.0,1.0,classic,incongruent,60.0,I4,,,BLUE,hotpink,1.05,['trial_opt3_shape'],[0.48050000000000637],1.0,3.0,3.0,0.48050000000000637,0.48050000000000637,3,1.0
test3,test3_stroop.csv,2,2020-01-01_00h00.00.000,stroop_artemis_2025.2.3,2025.2.4,59.88023952,Linux armv81,62.0,1.0,classic,incongruent,60.0,I4,,,BLUE,saddlebrown,1.067,['trial_opt2_shape'],[0.6651000000238128],1.0,2.0,2.0,0.6651000000238128,0.6651000000238128,2,1.0
test3,test3_stroop.csv,2,2020-01-01_00h00.00.000,stroop_artemis_2025.2.3,2025.2.4,59.88023952,Linux armv81,63.0,1.0,classic,incongruent,60.0,I4,,,PINK,saddlebrown,1.084,['trial_opt2_shape'],[0.5995000000000346],1.0,2.0,2.0,0.5995000000000346,0.5995000000000346,2,1.0
test3,test3_stroop.csv,2,2020-01-01_00h00.00.000,stroop_artemis_2025.2.3,2025.2.4,59.88023952,Linux armv81,64.0,1.0,classic,congruent,61.0,C5I,,,BROWN,saddlebrown,1.034,['trial_opt2_shape'],[0.4644999999999868],1.0,2.0,2.0,0.4644999999999868,0.4644999999999868,2,1.0
test3,test3_stroop.csv,2,2020-01-01_00h00.00.000,stroop_artemis_2025.2.3,2025.2.4,59.88023952,Linux armv81,65.0,1.0,classic,congruent,61.0,C5I,,,PINK,hotpink,1.2,['trial_opt3_shape'],[0.5469999999999686],1.0,3.0,3.0,0.5469999999999686,0.5469999999999686,3,1.0
test3,test3_stroop.csv,2,2020-01-01_00h00.00.000,stroop_artemis_2025.2.3,2025.2.4,59.88023952,Linux armv81,66.0,1.0,classic,congruent,61.0,C5I,,,BLUE,blue,1.017,['trial_opt1_shape'],[0.44719999998807225],1.0,1.0,1.0,0.44719999998807225,0.44719999998807225,1,1.0
test3,test3_stroop.csv,2,2020-01-01_00h00.00.000,stroop_artemis_2025.2.3,2025.2.4,59.88023952,Linux armv81,67.0,1.0,classic,congruent,61.0,C5I,,,BROWN,saddlebrown,1.15,['trial_opt2_shape'],[0.5800999999642045],1.0,2.0,2.0,0.5800999999642045,0.5800999999642045,2,1.0
test3,test3_stroop.csv,2,2020-01-01_00h00.00.000,stroop_artemis_2025.2.3,2025.2.4,59.88023952,Linux armv81,68.0,1.0,classic,congruent,61.0,C5I,,,BLUE,blue,1.134,['trial_opt1_shape'],[0.5640000000000214],1.0,1.0,1.0,0.5640000000000214,0.5640000000000214,1,1.0
test3,test3_stroop.csv,2,2020-01-01_00h00.00.000,stroop_artemis_2025.2.3,2025.2.4,59.88023952,Linux armv81,69.0,1.0,classic,incongruent,61.0,C5I,,,BLUE,saddlebrown,1.1,['trial_opt2_shape'],[0.7483999999761863],1.0,2.0,2.0,0.7483999999761863,0.7483999999761863,2,1.0
test3,test3_stroop.csv,2,2020-01-01_00h00.00.000,stroop_artemis_2025.2.3,2025.2.4,59.88023952,Linux armv81,70.0,1.0,classic,neutral,62.0,N3I,,,XXXXX,saddlebrown,1.0,['trial_opt2_shape'],[0.6803999999761459],1.0,2.0,2.0,0.6803999999761459,0.6803999999761459,2,1.0
test3,test3_stroop.csv,2,2020-01-01_00h00.00.000,stroop_artemis_2025.2.3,2025.2.4,59.88023952,Linux armv81,71.0,1.0,classic,neutral,62.0,N3I,,,XXXX,hotpink,1.117,['trial_opt3_shape'],[0.59699999999998],1.0,3.0,3.0,0.59699999999998,0.59699999999998,3,1.0
test3,test3_stroop.csv,2,2020-01-01_00h00.00.000,stroop_artemis_2025.2.3,2025.2.4,59.88023952,Linux armv81,72.0,1.0,classic,neutral,62.0,N3I,,,XXX,blue,1.167,['trial_opt1_shape'],[0.5974999999999682],1.0,1.0,1.0,0.5974999999999682,0.5974999999999682,1,1.0
test3,test3_stroop.csv,2,2020-01-01_00h00.00.000,stroop_artemis_2025.2.3,2025.2.4,59.88023952,Linux armv81,73.0,1.0,classic,incongruent,62.0,N3I,,,BROWN,hotpink,1.184,['trial_opt3_shape'],[0.6646000000238246],1.0,3.0,3.0,0.6646000000238246,0.6646000000238246,3,1.0
test3,test3_stroop.csv,2,2020-01-01_00h00.00.000,stroop_artemis_2025.2.3,2025.2.4,59.88023952,Linux armv81,74.0,1.0,classic,congruent,63.0,C7I,,,PINK,hotpink,1.017,['trial_opt3_shape'],[0.39839999997610676],1.0,3.0,3.0,0.39839999997610676,0.39839999997610676,3,1.0
test3,test3_stroop.csv,2,2020-01-01_00h00.00.000,stroop_artemis_2025.2.3,2025.2.4,59.88023952,Linux armv81,75.0,1.0,classic,congruent,63.0,C7I,,,BROWN,saddlebrown,1.05,['trial_opt2_shape'],[0.6465999999642236],1.0,2.0,2.0,0.6465999999642236,0.6465999999642236,2,1.0
test3,test3_stroop.csv,2,2020-01-01_00h00.00.000,stroop_artemis_2025.2.3,2025.2.4,59.88023952,Linux armv81,76.0,1.0,classic,congruent,63.0,C7I,,,PINK,hotpink,1.167,['trial_opt3_shape'],[0.6807000000476933],1.0,3.0,3.0,0.6807000000476933,0.6807000000476933,3,1.0
test3,test3_stroop.csv,2,2020-01-01_00h00.00.000,stroop_artemis_2025.2.3,2025.2.4,59.88023952,Linux armv81,77.0,1.0,classic,congruent,63.0,C7I,,,BLUE,blue,1.15,['trial_opt1_shape'],[0.5135999999642422],1.0,1.0,1.0,0.5135999999642422,0.5135999999642422,1,1.0
test3,test3_stroop.csv,2,2020-01-01_00h00.00.000,stroop_artemis_2025.2.3,2025.2.4,59.88023952,Linux armv81,78.0,1.0,classic,congruent,63.0,C7I,,,PINK,hotpink,1.117,['trial_opt3_shape'],[0.4965999999642463],1.0,3.0,3.0,0.4965999999642463,0.4965999999642463,3,1.0
test3,test3_stroop.csv,2,2020-01-01_00h00.00.000,stroop_artemis_2025.2.3,2025.2.4,59.88023952,Linux armv81,79.0,1.0,classic,congruent,63.0,C7I,,,BLUE,blue,1.0,['trial_opt1_shape'],[0.5629999999999882],1.0,1.0,1.0,0.5629999999999882,0.5629999999999882,1,1.0
test3,test3_stroop.csv,2,2020-01-01_00h00.00.000,stroop_artemis_2025.2.3,2025.2.4,59.88023952,Linux armv81,80.0,1.0,classic,congruent,63.0,C7I,,,BROWN,saddlebrown,1.2,['trial_opt2_shape'],[0.5470000000000255],1.0,2.0,2.0,0.5470000000000255,0.5470000000000255,2,1.0
test3,test3_stroop.csv,2,2020-01-01_00h00.00.000,stroop_artemis_2025.2.3,2025.2.4,59.88023952,Linux armv81,81.0,1.0,classic,incongruent,63.0,C7I,,,BROWN,blue,1.1,['trial_opt1_shape'],[0.5321000000238314],1.0,1.0,1.0,0.5321000000238314,0.5321000000238314,1,1.0
test3,test3_stroop.csv,2,2020-01-01_00h00.00.000,stroop_artemis_2025.2.3,2025.2.4,59.88023952,Linux armv81,82.0,1.0,classic,congruent,64.0,CI,,,BLUE,blue,1.184,['trial_opt1_shape'],[0.4971999999880836],1.0,1.0,1.0,0.4971999999880836,0.4971999999880836,1,1.0
test3,test3_stroop.csv,2,2020-01-01_00h00.00.000,stroop_artemis_2025.2.3,2025.2.4,59.88023952,Linux armv81,83.0,1.0,classic,incongruent,64.0,CI,,,PINK,blue,1.084,['trial_opt1_shape'],[0.41399999999998727],1.0,1.0,1.0,0.41399999999998727,0.41399999999998727,1,1.0
test3,test3_stroop.csv,2,2020-01-01_00h00.00.000,stroop_artemis_2025.2.3,2025.2.4,59.88023952,Linux armv81,84.0,1.0,classic,incongruent,65.0,I2,,,BLUE,hotpink,1.067,['trial_opt3_shape'],[0.6304999999999836],1.0,3.0,3.0,0.6304999999999836,0.6304999999999836,3,1.0
test3,test3_stroop.csv,2,2020-01-01_00h00.00.000,stroop_artemis_2025.2.3,2025.2.4,59.88023952,Linux armv81,85.0,1.0,classic,congruent,66.0,C3I,,,BROWN,saddlebrown,1.134,['trial_opt2_shape'],[0.5804000000358087],1.0,2.0,2.0,0.5804000000358087,0.5804000000358087,2,1.0
test3,test3_stroop.csv,2,2020-01-01_00h00.00.000,stroop_artemis_2025.2.3,2025.2.4,59.88023952,Linux armv81,86.0,1.0,classic,congruent,66.0,C3I,,,PINK,hotpink,1.034,['trial_opt3_shape'],[0.6323999999762009],1.0,3.0,3.0,0.6323999999762009,0.6323999999762009,3,1.0
test3,test3_stroop.csv,2,2020-01-01_00h00.00.000,stroop_artemis_2025.2.3,2025.2.4,59.88023952,Linux armv81,87.0,1.0,classic,congruent,66.0,C3I,,,BLUE,blue,1.117,['trial_opt1_shape'],[0.6145000000000209],1.0,1.0,1.0,0.6145000000000209,0.6145000000000209,1,1.0
test3,test3_stroop.csv,2,2020-01-01_00h00.00.000,stroop_artemis_2025.2.3,2025.2.4,59.88023952,Linux armv81,88.0,1.0,classic,incongruent,66.0,C3I,,,BLUE,saddlebrown,1.017,['trial_opt2_shape'],[0.59880000001192],1.0,2.0,2.0,0.59880000001192,0.59880000001192,2,1.0
test3,test3_stroop.csv,2,2020-01-01_00h00.00.000,stroop_artemis_2025.2.3,2025.2.4,59.88023952,Linux armv81,89.0,1.0,classic,congruent,67.0,C7I,,,BROWN,saddlebrown,1.05,['trial_opt2_shape'],[0.5474999999999568],1.0,2.0,2.0,0.5474999999999568,0.5474999999999568,2,1.0
test3,test3_stroop.csv,2,2020-01-01_00h00.00.000,stroop_artemis_2025.2.3,2025.2.4,59.88023952,Linux armv81,90.0,1.0,classic,congruent,67.0,C7I,,,PINK,hotpink,1.2,['trial_opt3_shape'],[0.5141000000238591],1.0,3.0,3.0,0.5141000000238591,0.5141000000238591,3,1.0
test3,test3_stroop.csv,2,2020-01-01_00h00.00.000,stroop_artemis_2025.2.3,2025.2.4,59.88023952,Linux armv81,91.0,1.0,classic,congruent,67.0,C7I,,,BROWN,saddlebrown,1.184,['trial_opt2_shape'],[0.5833000000119455],1.0,2.0,2.0,0.5833000000119455,0.5833000000119455,2,1.0
test3,test3_stroop.csv,2,2020-01-01_00h00.00.000,stroop_artemis_2025.2.3,2025.2.4,59.88023952,Linux armv81,92.0,1.0,classic,congruent,67.0,C7I,,,BLUE,blue,1.167,['trial_opt1_shape'],[0.5814999999999486],1.0,1.0,1.0,0.5814999999999486,0.5814999999999486,1,1.0
test3,test3_stroop.csv,2,2020-01-01_00h00.00.000,stroop_artemis_2025.2.3,2025.2.4,59.88023952,Linux armv81,93.0,1.0,classic,congruent,67.0,C7I,,,PINK,hotpink,1.15,['trial_opt3_shape'],[0.5314999999999941],1.0,3.0,3.0,0.5314999999999941,0.5314999999999941,3,1.0
test3,test3_stroop.csv,2,2020-01-01_00h00.00.000,stroop_artemis_2025.2.3,2025.2.4,59.88023952,Linux armv81,94.0,1.0,classic,congruent,67.0,C7I,,,BROWN,saddlebrown,1.1,['trial_opt2_shape'],[0.7803000000118914],1.0,2.0,2.0,0.7803000000118914,0.7803000000118914,2,1.0
test3,test3_stroop.csv,2,2020-01-01_00h00.00.000,stroop_artemis_2025.2.3,2025.2.4,59.88023952,Linux armv81,95.0,1.0,classic,congruent,67.0,C7I,,,PINK,hotpink,1.067,['trial_opt3_shape'],[0.630199999988065],1.0,3.0,3.0,0.630199999988065,0.630199999988065,3,1.0
test3,test3_stroop.csv,2,2020-01-01_00h00.00.000,stroop_artemis_2025.2.3,2025.2.4,59.88023952,Linux armv81,96.0,1.0,classic,incongruent,67.0,C7I,,,BROWN,hotpink,1.084,['trial_opt3_shape'],[0.58039999997618],1.0,3.0,3.0,0.58039999997618,0.58039999997618,3,1.0
test3,test3_stroop.csv,2,2020-01-01_00h00.00.000,stroop_artemis_2025.2.3,2025.2.4,59.88023952,Linux armv81,97.0,1.0,classic,neutral,68.0,NI,,,XXXX,hotpink,1.134,['trial_opt3_shape'],[0.47990000003574096],1.0,3.0,3.0,0.47990000003574096,0.47990000003574096,3,1.0
test3,test3_stroop.csv,2,2020-01-01_00h00.00.000,stroop_artemis_2025.2.3,2025.2.4,59.88023952,Linux armv81,98.0,1.0,classic,incongruent,68.0,NI,,,BLUE,hotpink,1.0,['trial_opt3_shape'],[0.47989999997616906],1.0,3.0,3.0,0.47989999997616906,0.47989999997616906,3,1.0
test3,test3_stroop.csv,2,2020-01-01_00h00.00.000,stroop_artemis_2025.2.3,2025.2.4,59.88023952,Linux armv81,99.0,1.0,classic,congruent,69.0,C6I,,,BLUE,blue,1.034,['trial_opt1_shape'],[0.5145999999642754],1.0,1.0,1.0,0.5145999999642754,0.5145999999642754,1,1.0
test3,test3_stroop.csv,2,2020-01-01_00h00.00.000,stroop_artemis_2025.2.3,2025.2.4,59.88023952,Linux armv81,100.0,1.0,classic,congruent,69.0,C6I,,,PINK,hotpink,1.05,['trial_opt3_shape'],[0.4964000000357487],1.0,3.0,3.0,0.4964000000357487,0.4964000000357487,3,1.0
test3,test3_stroop.csv,2,2020-01-01_00h00.00.000,stroop_artemis_2025.2.3,2025.2.4,59.88023952,Linux armv81,101.0,1.0,classic,congruent,69.0,C6I,,,BLUE,blue,1.067,['trial_opt1_shape'],[0.4631000000238146],1.0,1.0,1.0,0.4631000000238146,0.4631000000238146,1,1.0
test3,test3_stroop.csv,2,2020-01-01_00h00.00.000,stroop_artemis_2025.2.3,2025.2.4,59.88023952,Linux armv81,102.0,1.0,classic,congruent,69.0,C6I,,,BROWN,saddlebrown,1.1,['trial_opt2_shape'],[0.4970999999642345],1.0,2.0,2.0,0.4970999999642345,0.4970999999642345,2,1.0
test3,test3_stroop.csv,2,2020-01-01_00h00.00.000,stroop_artemis_2025.2.3,2025.2.4,59.88023952,Linux armv81,103.0,1.0,classic,congruent,69.0,C6I,,,PINK,hotpink,1.0,['trial_opt3_shape'],[0.5466000000238296],1.0,3.0,3.0,0.5466000000238296,0.5466000000238296,3,1.0
test3,test3_stroop.csv,2,2020-01-01_00h00.00.000,stroop_artemis_2025.2.3,2025.2.4,59.88023952,Linux armv81,104.0,1.0,classic,congruent,69.0,C6I,,,BROWN,saddlebrown,1.184,['trial_opt2_shape'],[0.6478000000118982],1.0,2.0,2.0,0.6478000000118982,0.6478000000118982,2,1.0
test3,test3_stroop.csv,2,2020-01-01_00h00.00.000,stroop_artemis_2025.2.3,2025.2.4,59.88023952,Linux armv81,105.0,1.0,classic,incongruent,69.0,C6I,,,PINK,saddlebrown,1.084,['trial_opt2_shape'],[0.6970000000000027],1.0,2.0,2.0,0.6970000000000027,0.6970000000000027,2,1.0
test3,test3_stroop.csv,2,2020-01-01_00h00.00.000,stroop_artemis_2025.2.3,2025.2.4,59.88023952,Linux armv81,106.0,1.0,classic,congruent,70.0,C5I,,,BLUE,blue,1.034,['trial_opt1_shape'],[0.5663000000119496],1.0,1.0,1.0,0.5663000000119496,0.5663000000119496,1,1.0
test3,test3_stroop.csv,2,2020-01-01_00h00.00.000,stroop_artemis_2025.2.3,2025.2.4,59.88023952,Linux armv81,107.0,1.0,classic,congruent,70.0,C5I,,,BROWN,saddlebrown,1.2,['trial_opt2_shape'],[0.5645000000000095],1.0,2.0,2.0,0.5645000000000095,0.5645000000000095,2,1.0
test3,test3_stroop.csv,2,2020-01-01_00h00.00.000,stroop_artemis_2025.2.3,2025.2.4,59.88023952,Linux armv81,108.0,1.0,classic,congruent,70.0,C5I,,,PINK,hotpink,1.167,['trial_opt3_shape'],[0.5297999999523313],1.0,3.0,3.0,0.5297999999523313,0.5297999999523313,3,1.0
test3,test3_stroop.csv,2,2020-01-01_00h00.00.000,stroop_artemis_2025.2.3,2025.2.4,59.88023952,Linux armv81,109.0,1.0,classic,congruent,70.0,C5I,,,BLUE,blue,1.017,['trial_opt1_shape'],[0.4481000000238282],1.0,1.0,1.0,0.4481000000238282,0.4481000000238282,1,1.0
test3,test3_stroop.csv,2,2020-01-01_00h00.00.000,stroop_artemis_2025.2.3,2025.2.4,59.88023952,Linux armv81,110.0,1.0,classic,congruent,70.0,C5I,,,BROWN,saddlebrown,1.117,['trial_opt2_shape'],[0.5974000000357478],1.0,2.0,2.0,0.5974000000357478,0.5974000000357478,2,1.0
test3,test3_stroop.csv,2,2020-01-01_00h00.00.000,stroop_artemis_2025.2.3,2025.2.4,59.88023952,Linux armv81,111.0,1.0,classic,incongruent,70.0,C5I,,,PINK,blue,1.134,['trial_opt1_shape'],[0.7305000000000064],1.0,1.0,1.0,0.7305000000000064,0.7305000000000064,1,1.0
test3,test3_stroop.csv,2,2020-01-01_00h00.00.000,stroop_artemis_2025.2.3,2025.2.4,59.88023952,Linux armv81,112.0,1.0,classic,neutral,71.0,N3I,,,XXXXX,saddlebrown,1.15,['trial_opt2_shape'],[0.7641000000238591],1.0,2.0,2.0,0.7641000000238591,0.7641000000238591,2,1.0
test3,test3_stroop.csv,2,2020-01-01_00h00.00.000,stroop_artemis_2025.2.3,2025.2.4,59.88023952,Linux armv81,113.0,1.0,classic,neutral,71.0,N3I,,,XXX,blue,1.2,['trial_opt1_shape'],[0.6137999999523345],1.0,1.0,1.0,0.6137999999523345,0.6137999999523345,1,1.0
test3,test3_stroop.csv,2,2020-01-01_00h00.00.000,stroop_artemis_2025.2.3,2025.2.4,59.88023952,Linux armv81,114.0,1.0,classic,neutral,71.0,N3I,,,XXXXX,saddlebrown,1.017,['trial_opt2_shape'],[0.5653999999761368],1.0,2.0,2.0,0.5653999999761368,0.5653999999761368,2,1.0
test3,test3_stroop.csv,2,2020-01-01_00h00.00.000,stroop_artemis_2025.2.3,2025.2.4,59.88023952,Linux armv81,115.0,1.0,classic,incongruent,71.0,N3I,,,BROWN,blue,1.117,['trial_opt1_shape'],[0.5491999999880477],1.0,1.0,1.0,0.5491999999880477,0.5491999999880477,1,1.0
test3,test3_stroop.csv,2,2020-01-01_00h00.00.000,stroop_artemis_2025.2.3,2025.2.4,59.88023952,Linux armv81,116.0,1.0,classic,congruent,72.0,CI,,,BLUE,blue,1.134,['trial_opt1_shape'],[0.5480000000000018],1.0,1.0,1.0,0.5480000000000018,0.5480000000000018,1,1.0
test3,test3_stroop.csv,2,2020-01-01_00h00.00.000,stroop_artemis_2025.2.3,2025.2.4,59.88023952,Linux armv81,117.0,1.0,classic,incongruent,72.0,CI,,,PINK,blue,1.034,['trial_opt1_shape'],[0.6483000000119432],1.0,1.0,1.0,0.6483000000119432,0.6483000000119432,1,1.0
test3,test3_stroop.csv,2,2020-01-01_00h00.00.000,stroop_artemis_2025.2.3,2025.2.4,59.88023952,Linux armv81,118.0,1.0,classic,congruent,73.0,C6I,,,PINK,hotpink,1.184,['trial_opt3_shape'],[0.5828999999761209],1.0,3.0,3.0,0.5828999999761209,0.5828999999761209,3,1.0
test3,test3_stroop.csv,2,2020-01-01_00h00.00.000,stroop_artemis_2025.2.3,2025.2.4,59.88023952,Linux armv81,119.0,1.0,classic,congruent,73.0,C6I,,,BROWN,saddlebrown,1.167,['trial_opt2_shape'],[0.7309000000357742],1.0,2.0,2.0,0.7309000000357742,0.7309000000357742,2,1.0
test3,test3_stroop.csv,2,2020-01-01_00h00.00.000,stroop_artemis_2025.2.3,2025.2.4,59.88023952,Linux armv81,120.0,1.0,classic,congruent,73.0,C6I,,,PINK,hotpink,1.1,['trial_opt3_shape'],[0.597500000000025],1.0,3.0,3.0,0.597500000000025,0.597500000000025,3,1.0
test3,test3_stroop.csv,2,2020-01-01_00h00.00.000,stroop_artemis_2025.2.3,2025.2.4,59.88023952,Linux armv81,121.0,1.0,classic,congruent,73.0,C6I,,,BLUE,blue,1.05,['trial_opt1_shape'],[0.5478000000119323],1.0,1.0,1.0,0.5478000000119323,0.5478000000119323,1,1.0
test3,test3_stroop.csv,2,2020-01-01_00h00.00.000,stroop_artemis_2025.2.3,2025.2.4,59.88023952,Linux armv81,122.0,1.0,classic,congruent,73.0,C6I,,,PINK,hotpink,1.15,['trial_opt3_shape'],[0.5803000000119596],1.0,3.0,3.0,0.5803000000119596,0.5803000000119596,3,1.0
test3,test3_stroop.csv,2,2020-01-01_00h00.00.000,stroop_artemis_2025.2.3,2025.2.4,59.88023952,Linux armv81,123.0,1.0,classic,congruent,73.0,C6I,,,BROWN,saddlebrown,1.067,['trial_opt2_shape'],[0.7638000000119405],1.0,2.0,2.0,0.7638000000119405,0.7638000000119405,2,1.0
test3,test3_stroop.csv,2,2020-01-01_00h00.00.000,stroop_artemis_2025.2.3,2025.2.4,59.88023952,Linux armv81,124.0,1.0,classic,incongruent,73.0,C6I,,,BROWN,blue,1.0,['trial_opt1_shape'],[0.5483999999761977],1.0,1.0,1.0,0.5483999999761977,0.5483999999761977,1,1.0
test3,test3_stroop.csv,2,2020-01-01_00h00.00.000,stroop_artemis_2025.2.3,2025.2.4,59.88023952,Linux armv81,125.0,1.0,classic,congruent,74.0,C4I,,,BLUE,blue,1.084,['trial_opt1_shape'],[0.646900000035771],1.0,1.0,1.0,0.646900000035771,0.646900000035771,1,1.0
test3,test3_stroop.csv,2,2020-01-01_00h00.00.000,stroop_artemis_2025.2.3,2025.2.4,59.88023952,Linux armv81,126.0,1.0,classic,congruent,74.0,C4I,,,BROWN,saddlebrown,1.05,['trial_opt2_shape'],[0.6655000000000086],1.0,2.0,2.0,0.6655000000000086,0.6655000000000086,2,1.0
test3,test3_stroop.csv,2,2020-01-01_00h00.00.000,stroop_artemis_2025.2.3,2025.2.4,59.88023952,Linux armv81,127.0,1.0,classic,congruent,74.0,C4I,,,BLUE,blue,1.2,['trial_opt1_shape'],[0.5983000000119318],1.0,1.0,1.0,0.5983000000119318,0.5983000000119318,1,1.0
test3,test3_stroop.csv,2,2020-01-01_00h00.00.000,stroop_artemis_2025.2.3,2025.2.4,59.88023952,Linux armv81,128.0,1.0,classic,congruent,74.0,C4I,,,PINK,hotpink,1.0,['trial_opt3_shape'],[0.5139000000357328],1.0,3.0,3.0,0.5139000000357328,0.5139000000357328,3,1.0
test3,test3_stroop.csv,2,2020-01-01_00h00.00.000,stroop_artemis_2025.2.3,2025.2.4,59.88023952,Linux armv81,129.0,1.0,classic,incongruent,74.0,C4I,,,BLUE,saddlebrown,1.167,['trial_opt2_shape'],[0.6141999999880454],1.0,2.0,2.0,0.6141999999880454,0.6141999999880454,2,1.0
test3,test3_stroop.csv,2,2020-01-01_00h00.00.000,stroop_artemis_2025.2.3,2025.2.4,59.88023952,Linux armv81,130.0,1.0,classic,incongruent,75.0,I3,,,PINK,saddlebrown,1.117,['trial_opt2_shape'],[0.5642999999523681],1.0,2.0,2.0,0.5642999999523681,0.5642999999523681,2,1.0
test3,test3_stroop.csv,2,2020-01-01_00h00.00.000,stroop_artemis_2025.2.3,2025.2.4,59.88023952,Linux armv81,131.0,1.0,classic,incongruent,75.0,I3,,,BLUE,hotpink,1.084,['trial_opt3_shape'],[0.6148000000119396],1.0,3.0,3.0,0.6148000000119396,0.6148000000119396,3,1.0
test3,test3_stroop.csv,2,2020-01-01_00h00.00.000,stroop_artemis_2025.2.3,2025.2.4,59.88023952,Linux armv81,132.0,1.0,classic,congruent,76.0,C6I,,,PINK,hotpink,1.017,['trial_opt3_shape'],[0.5644000000357323],1.0,3.0,3.0,0.5644000000357323,0.5644000000357323,3,1.0
test3,test3_stroop.csv,2,2020-01-01_00h00.00.000,stroop_artemis_2025.2.3,2025.2.4,59.88023952,Linux armv81,133.0,1.0,classic,congruent,76.0,C6I,,,BLUE,blue,1.067,['trial_opt1_shape'],[0.4656000000238123],1.0,1.0,1.0,0.4656000000238123,0.4656000000238123,1,1.0
test3,test3_stroop.csv,2,2020-01-01_00h00.00.000,stroop_artemis_2025.2.3,2025.2.4,59.88023952,Linux armv81,134.0,1.0,classic,congruent,76.0,C6I,,,BROWN,saddlebrown,1.1,['trial_opt2_shape'],[0.6644999999999754],1.0,2.0,2.0,0.6644999999999754,0.6644999999999754,2,1.0
test3,test3_stroop.csv,2,2020-01-01_00h00.00.000,stroop_artemis_2025.2.3,2025.2.4,59.88023952,Linux armv81,135.0,1.0,classic,congruent,76.0,C6I,,,PINK,hotpink,1.184,['trial_opt3_shape'],[0.5466000000238296],1.0,3.0,3.0,0.5466000000238296,0.5466000000238296,3,1.0
test3,test3_stroop.csv,2,2020-01-01_00h00.00.000,stroop_artemis_2025.2.3,2025.2.4,59.88023952,Linux armv81,136.0,1.0,classic,congruent,76.0,C6I,,,BLUE,blue,1.15,['trial_opt1_shape'],[0.5802000000476824],1.0,1.0,1.0,0.5802000000476824,0.5802000000476824,1,1.0
test3,test3_stroop.csv,2,2020-01-01_00h00.00.000,stroop_artemis_2025.2.3,2025.2.4,59.88023952,Linux armv81,137.0,1.0,classic,congruent,76.0,C6I,,,BROWN,saddlebrown,1.034,['trial_opt2_shape'],[0.6470000000000482],1.0,2.0,2.0,0.6470000000000482,0.6470000000000482,2,1.0
test3,test3_stroop.csv,2,2020-01-01_00h00.00.000,stroop_artemis_2025.2.3,2025.2.4,59.88023952,Linux armv81,138.0,1.0,classic,incongruent,76.0,C6I,,,BROWN,hotpink,1.134,['trial_opt3_shape'],[0.6484999999999559],1.0,3.0,3.0,0.6484999999999559,0.6484999999999559,3,1.0
test3,test3_stroop.csv,2,2020-01-01_00h00.00.000,stroop_artemis_2025.2.3,2025.2.4,59.88023952,Linux armv81,139.0,1.0,classic,neutral,77.0,N2I,,,XXXX,hotpink,1.034,['trial_opt3_shape'],[0.7648999999761372],1.0,3.0,3.0,0.7648999999761372,0.7648999999761372,3,1.0
test3,test3_stroop.csv,2,2020-01-01_00h00.00.000,stroop_artemis_2025.2.3,2025.2.4,59.88023952,Linux armv81,140.0,1.0,classic,neutral,77.0,N2I,,,XXX,blue,1.117,['trial_opt1_shape'],[0.6639999999999873],1.0,1.0,1.0,0.6639999999999873,0.6639999999999873,1,1.0
test3,test3_stroop.csv,2,2020-01-01_00h00.00.000,stroop_artemis_2025.2.3,2025.2.4,59.88023952,Linux armv81,141.0,1.0,classic,incongruent,77.0,N2I,,,BLUE,hotpink,1.15,['trial_opt3_shape'],[0.6626999999880354],1.0,3.0,3.0,0.6626999999880354,0.6626999999880354,3,1.0
test3,test3_stroop.csv,2,2020-01-01_00h00.00.000,stroop_artemis_2025.2.3,2025.2.4,59.88023952,Linux armv81,142.0,1.0,classic,congruent,78.0,C4I,,,BLUE,blue,1.2,['trial_opt1_shape'],[0.5486000000238391],1.0,1.0,1.0,0.5486000000238391,0.5486000000238391,1,1.0
test3,test3_stroop.csv,2,2020-01-01_00h00.00.000,stroop_artemis_2025.2.3,2025.2.4,59.88023952,Linux armv81,143.0,1.0,classic,congruent,78.0,C4I,,,BROWN,saddlebrown,1.134,['trial_opt2_shape'],[0.6136000000238369],1.0,2.0,2.0,0.6136000000238369,0.6136000000238369,2,1.0
test3,test3_stroop.csv,2,2020-01-01_00h00.00.000,stroop_artemis_2025.2.3,2025.2.4,59.88023952,Linux armv81,144.0,1.0,classic,congruent,78.0,C4I,,,PINK,hotpink,1.1,['trial_opt3_shape'],[0.5301999999880991],1.0,3.0,3.0,0.5301999999880991,0.5301999999880991,3,1.0
test3,test3_stroop.csv,2,2020-01-01_00h00.00.000,stroop_artemis_2025.2.3,2025.2.4,59.88023952,Linux armv81,145.0,1.0,classic,congruent,78.0,C4I,,,BROWN,saddlebrown,1.05,['trial_opt2_shape'],[0.6140999999642531],1.0,2.0,2.0,0.6140999999642531,0.6140999999642531,2,1.0
test3,test3_stroop.csv,2,2020-01-01_00h00.00.000,stroop_artemis_2025.2.3,2025.2.4,59.88023952,Linux armv81,146.0,1.0,classic,incongruent,78.0,C4I,,,BLUE,saddlebrown,1.184,['trial_opt2_shape'],[0.5641000000238137],1.0,2.0,2.0,0.5641000000238137,0.5641000000238137,2,1.0
test3,test3_stroop.csv,2,2020-01-01_00h00.00.000,stroop_artemis_2025.2.3,2025.2.4,59.88023952,Linux armv81,147.0,1.0,classic,congruent,79.0,C6I,,,PINK,hotpink,1.167,['trial_opt3_shape'],[0.49780000001192093],1.0,3.0,3.0,0.49780000001192093,0.49780000001192093,3,1.0
test3,test3_stroop.csv,2,2020-01-01_00h00.00.000,stroop_artemis_2025.2.3,2025.2.4,59.88023952,Linux armv81,148.0,1.0,classic,congruent,79.0,C6I,,,BLUE,blue,1.0,['trial_opt1_shape'],[0.44910000002380457],1.0,1.0,1.0,0.44910000002380457,0.44910000002380457,1,1.0
test3,test3_stroop.csv,2,2020-01-01_00h00.00.000,stroop_artemis_2025.2.3,2025.2.4,59.88023952,Linux armv81,149.0,1.0,classic,congruent,79.0,C6I,,,PINK,hotpink,1.017,['trial_opt3_shape'],[0.5473000000118873],1.0,3.0,3.0,0.5473000000118873,0.5473000000118873,3,1.0
test3,test3_stroop.csv,2,2020-01-01_00h00.00.000,stroop_artemis_2025.2.3,2025.2.4,59.88023952,Linux armv81,150.0,1.0,classic,congruent,79.0,C6I,,,BROWN,saddlebrown,1.067,['trial_opt2_shape'],[0.614100000023825],1.0,2.0,2.0,0.614100000023825,0.614100000023825,2,1.0
test3,test3_stroop.csv,2,2020-01-01_00h00.00.000,stroop_artemis_2025.2.3,2025.2.4,59.88023952,Linux armv81,151.0,1.0,classic,congruent,79.0,C6I,,,BLUE,blue,1.084,['trial_opt1_shape'],[0.6978999999761868],1.0,1.0,1.0,0.6978999999761868,0.6978999999761868,1,1.0
test3,test3_stroop.csv,2,2020-01-01_00h00.00.000,stroop_artemis_2025.2.3,2025.2.4,59.88023952,Linux armv81,152.0,1.0,classic,congruent,79.0,C6I,,,PINK,hotpink,1.0,['trial_opt3_shape'],[0.730800000011925],1.0,3.0,3.0,0.730800000011925,0.730800000011925,3,1.0
test3,test3_stroop.csv,2,2020-01-01_00h00.00.000,stroop_artemis_2025.2.3,2025.2.4,59.88023952,Linux armv81,153.0,1.0,classic,incongruent,79.0,C6I,,,PINK,blue,1.15,['trial_opt1_shape'],[0.6311000000238778],1.0,1.0,1.0,0.6311000000238778,0.6311000000238778,1,1.0
test3,test3_stroop.csv,2,2020-01-01_00h00.00.000,stroop_artemis_2025.2.3,2025.2.4,59.88023952,Linux armv81,154.0,1.0,classic,incongruent,80.0,I2,,,PINK,saddlebrown,1.184,['trial_opt2_shape'],[0.44789999997612995],1.0,2.0,2.0,0.44789999997612995,0.44789999997612995,2,1.0
test3,test3_stroop.csv,2,2020-01-01_00h00.00.000,stroop_artemis_2025.2.3,2025.2.4,59.88023952,Linux armv81,155.0,1.0,classic,congruent,81.0,C2I,,,BROWN,saddlebrown,1.017,['trial_opt2_shape'],[0.5468000000118991],1.0,2.0,2.0,0.5468000000118991,0.5468000000118991,2,1.0
test3,test3_stroop.csv,2,2020-01-01_00h00.00.000,stroop_artemis_2025.2.3,2025.2.4,59.88023952,Linux armv81,156.0,1.0,classic,congruent,81.0,C2I,,,BLUE,blue,1.117,['trial_opt1_shape'],[0.5796999999880654],1.0,1.0,1.0,0.5796999999880654,0.5796999999880654,1,1.0
test3,test3_stroop.csv,2,2020-01-01_00h00.00.000,stroop_artemis_2025.2.3,2025.2.4,59.88023952,Linux armv81,157.0,1.0,classic,incongruent,81.0,C2I,,,BROWN,hotpink,1.067,['trial_opt3_shape'],[0.6139999999999759],1.0,3.0,3.0,0.6139999999999759,0.6139999999999759,3,1.0
test3,test3_stroop.csv,2,2020-01-01_00h00.00.000,stroop_artemis_2025.2.3,2025.2.4,59.88023952,Linux armv81,158.0,1.0,classic,neutral,82.0,N3I,,,XXX,blue,1.034,['trial_opt1_shape'],[0.5963999999761995],1.0,1.0,1.0,0.5963999999761995,0.5963999999761995,1,1.0
test3,test3_stroop.csv,2,2020-01-01_00h00.00.000,stroop_artemis_2025.2.3,2025.2.4,59.88023952,Linux armv81,159.0,1.0,classic,neutral,82.0,N3I,,,XXXXX,saddlebrown,1.1,['trial_opt3_shape'],[0.4983000000119091],1.0,3.0,3.0,0.4983000000119091,0.4983000000119091,2,0.0
test3,test3_stroop.csv,2,2020-01-01_00h00.00.000,stroop_artemis_2025.2.3,2025.2.4,59.88023952,Linux armv81,160.0,1.0,classic,neutral,82.0,N3I,,,XXXX,hotpink,1.2,['trial_opt3_shape'],[0.71369999998808],1.0,3.0,3.0,0.71369999998808,0.71369999998808,3,1.0
test3,test3_stroop.csv,2,2020-01-01_00h00.00.000,stroop_artemis_2025.2.3,2025.2.4,59.88023952,Linux armv81,161.0,1.0,classic,incongruent,82.0,N3I,,,BROWN,blue,1.167,['trial_opt1_shape'],[0.7138000000119291],1.0,1.0,1.0,0.7138000000119291,0.7138000000119291,1,1.0
test3,test3_stroop.csv,2,2020-01-01_00h00.00.000,stroop_artemis_2025.2.3,2025.2.4,59.88023952,Linux armv81,162.0,1.0,classic,congruent,83.0,C4I,,,PINK,hotpink,1.05,['trial_opt3_shape'],[0.5639000000357441],1.0,3.0,3.0,0.5639000000357441,0.5639000000357441,3,1.0
test3,test3_stroop.csv,2,2020-01-01_00h00.00.000,stroop_artemis_2025.2.3,2025.2.4,59.88023952,Linux armv81,163.0,1.0,classic,congruent,83.0,C4I,,,BLUE,blue,1.134,['trial_opt1_shape'],[0.5636999999880459],1.0,1.0,1.0,0.5636999999880459,0.5636999999880459,1,1.0
test3,test3_stroop.csv,2,2020-01-01_00h00.00.000,stroop_artemis_2025.2.3,2025.2.4,59.88023952,Linux armv81,164.0,1.0,classic,congruent,83.0,C4I,,,BROWN,saddlebrown,1.084,['trial_opt2_shape'],[0.6472000000476896],1.0,2.0,2.0,0.6472000000476896,0.6472000000476896,2,1.0
test3,test3_stroop.csv,2,2020-01-01_00h00.00.000,stroop_artemis_2025.2.3,2025.2.4,59.88023952,Linux armv81,165.0,1.0,classic,congruent,83.0,C4I,,,BLUE,blue,1.084,['trial_opt1_shape'],[0.8308999999761681],1.0,1.0,1.0,0.8308999999761681,0.8308999999761681,1,1.0
test3,test3_stroop.csv,2,2020-01-01_00h00.00.000,stroop_artemis_2025.2.3,2025.2.4,59.88023952,Linux armv81,166.0,1.0,classic,incongruent,83.0,C4I,,,BLUE,hotpink,1.1,['trial_opt3_shape'],[0.498599999964199],1.0,3.0,3.0,0.498599999964199,0.498599999964199,3,1.0
test3,test3_stroop.csv,2,2020-01-01_00h00.00.000,stroop_artemis_2025.2.3,2025.2.4,59.88023952,Linux armv81,167.0,1.0,classic,incongruent,84.0,I3,,,BROWN,hotpink,1.017,['trial_opt3_shape'],[0.3966000000237955],1.0,3.0,3.0,0.3966000000237955,0.3966000000237955,3,1.0
test3,test3_stroop.csv,2,2020-01-01_00h00.00.000,stroop_artemis_2025.2.3,2025.2.4,59.88023952,Linux armv81,168.0,1.0,classic,incongruent,84.0,I3,,,PINK,blue,1.184,['trial_opt1_shape'],[0.6636999999880686],1.0,1.0,1.0,0.6636999999880686,0.6636999999880686,1,1.0
test3,test3_stroop.csv,2,2020-01-01_00h00.00.000,stroop_artemis_2025.2.3,2025.2.4,59.88023952,Linux armv81,169.0,1.0,classic,congruent,85.0,C4I,,,BROWN,saddlebrown,1.2,['trial_opt2_shape'],[0.58090000003574],1.0,2.0,2.0,0.58090000003574,0.58090000003574,2,1.0
test3,test3_stroop.csv,2,2020-01-01_00h00.00.000,stroop_artemis_2025.2.3,2025.2.4,59.88023952,Linux armv81,170.0,1.0,classic,congruent,85.0,C4I,,,PINK,hotpink,1.034,['trial_opt3_shape'],[0.5636999999881027],1.0,3.0,3.0,0.5636999999881027,0.5636999999881027,3,1.0
test3,test3_stroop.csv,2,2020-01-01_00h00.00.000,stroop_artemis_2025.2.3,2025.2.4,59.88023952,Linux armv81,171.0,1.0,classic,congruent,85.0,C4I,,,BROWN,saddlebrown,1.15,['trial_opt2_shape'],[0.6139999999999759],1.0,2.0,2.0,0.6139999999999759,0.6139999999999759,2,1.0
test3,test3_stroop.csv,2,2020-01-01_00h00.00.000,stroop_artemis_2025.2.3,2025.2.4,59.88023952,Linux armv81,172.0,1.0,classic,congruent,85.0,C4I,,,BLUE,blue,1.0,['trial_opt1_shape'],[0.5978000000118868],1.0,1.0,1.0,0.5978000000118868,0.5978000000118868,1,1.0
test3,test3_stroop.csv,2,2020-01-01_00h00.00.000,stroop_artemis_2025.2.3,2025.2.4,59.88023952,Linux armv81,173.0,1.0,classic,incongruent,85.0,C4I,,,BLUE,saddlebrown,1.05,['trial_opt2_shape'],[0.8315999999642258],1.0,2.0,2.0,0.8315999999642258,0.8315999999642258,2,1.0
test3,test3_stroop.csv,2,2020-01-01_00h00.00.000,stroop_artemis_2025.2.3,2025.2.4,59.88023952,Linux armv81,174.0,1.0,classic,congruent,86.0,C2I,,,PINK,hotpink,1.167,['trial_opt3_shape'],[0.5805000000000291],1.0,3.0,3.0,0.5805000000000291,0.5805000000000291,3,1.0
test3,test3_stroop.csv,2,2020-01-01_00h00.00.000,stroop_artemis_2025.2.3,2025.2.4,59.88023952,Linux armv81,175.0,1.0,classic,congruent,86.0,C2I,,,BLUE,blue,1.067,['trial_opt1_shape'],[0.5138999999761609],1.0,1.0,1.0,0.5138999999761609,0.5138999999761609,1,1.0
test3,test3_stroop.csv,2,2020-01-01_00h00.00.000,stroop_artemis_2025.2.3,2025.2.4,59.88023952,Linux armv81,176.0,1.0,classic,incongruent,86.0,C2I,,,BROWN,blue,1.117,['trial_opt1_shape'],[0.5813000000119359],1.0,1.0,1.0,0.5813000000119359,0.5813000000119359,1,1.0
test3,test3_stroop.csv,2,2020-01-01_00h00.00.000,stroop_artemis_2025.2.3,2025.2.4,59.88023952,Linux armv81,0.0,2.0,emotional,neutral,91.0,Neutx2_Neg,1.0,,pile,saddlebrown,1.134,['trial_opt2_shape'],[0.7738999999761518],1.0,2.0,2.0,0.7738999999761518,0.7738999999761518,2,1.0
test3,test3_stroop.csv,2,2020-01-01_00h00.00.000,stroop_artemis_2025.2.3,2025.2.4,59.88023952,Linux armv81,1.0,2.0,emotional,neutral,91.0,Neutx2_Neg,0.0,,flour,saddlebrown,1.167,['trial_opt2_shape'],[0.48039999997615723],1.0,2.0,2.0,0.48039999997615723,0.48039999997615723,2,1.0
test3,test3_stroop.csv,2,2020-01-01_00h00.00.000,stroop_artemis_2025.2.3,2025.2.4,59.88023952,Linux armv81,2.0,2.0,emotional,negative,91.0,Neutx2_Neg,0.0,NeutNegNoSwitch,coffin,saddlebrown,1.117,['trial_opt2_shape'],[0.4293999999761695],1.0,2.0,2.0,0.4293999999761695,0.4293999999761695,2,1.0
test3,test3_stroop.csv,2,2020-01-01_00h00.00.000,stroop_artemis_2025.2.3,2025.2.4,59.88023952,Linux armv81,3.0,2.0,emotional,neutral,92.0,Neutx4_Neg,1.0,,join,blue,1.067,['trial_opt1_shape'],[0.380199999988065],1.0,1.0,1.0,0.380199999988065,0.380199999988065,1,1.0
test3,test3_stroop.csv,2,2020-01-01_00h00.00.000,stroop_artemis_2025.2.3,2025.2.4,59.88023952,Linux armv81,4.0,2.0,emotional,neutral,92.0,Neutx4_Neg,0.0,,liftoff,blue,1.017,['trial_opt1_shape'],[0.39740000003575915],1.0,1.0,1.0,0.39740000003575915,0.39740000003575915,1,1.0
test3,test3_stroop.csv,2,2020-01-01_00h00.00.000,stroop_artemis_2025.2.3,2025.2.4,59.88023952,Linux armv81,5.0,2.0,emotional,negative,92.0,Neutx4_Neg,1.0,NeutNegSwitch,angry,saddlebrown,1.134,['trial_opt2_shape'],[0.6138999999761268],1.0,2.0,2.0,0.6138999999761268,0.6138999999761268,2,1.0
test3,test3_stroop.csv,2,2020-01-01_00h00.00.000,stroop_artemis_2025.2.3,2025.2.4,59.88023952,Linux armv81,6.0,2.0,emotional,negative,93.0,Negx4,0.0,,punish,saddlebrown,1.084,['trial_opt2_shape'],[0.4970000000000141],1.0,2.0,2.0,0.4970000000000141,0.4970000000000141,2,1.0
test3,test3_stroop.csv,2,2020-01-01_00h00.00.000,stroop_artemis_2025.2.3,2025.2.4,59.88023952,Linux armv81,7.0,2.0,emotional,negative,93.0,Negx4,0.0,NegNoSwitch,hostile,saddlebrown,1.1,['trial_opt2_shape'],[0.4801999999880877],1.0,2.0,2.0,0.4801999999880877,0.4801999999880877,2,1.0
test3,test3_stroop.csv,2,2020-01-01_00h00.00.000,stroop_artemis_2025.2.3,2025.2.4,59.88023952,Linux armv81,8.0,2.0,emotional,neutral,94.0,Neutx3_Pos,1.0,,flicker,blue,1.2,['trial_opt1_shape'],[0.5635999999641967],1.0,1.0,1.0,0.5635999999641967,0.5635999999641967,1,1.0
test3,test3_stroop.csv,2,2020-01-01_00h00.00.000,stroop_artemis_2025.2.3,2025.2.4,59.88023952,Linux armv81,9.0,2.0,emotional,neutral,94.0,Neutx3_Pos,0.0,,squeal,blue,1.0,['trial_opt1_shape'],[0.5473000000119441],1.0,1.0,1.0,0.5473000000119441,0.5473000000119441,1,1.0
test3,test3_stroop.csv,2,2020-01-01_00h00.00.000,stroop_artemis_2025.2.3,2025.2.4,59.88023952,Linux armv81,10.0,2.0,emotional,positive,94.0,Neutx3_Pos,0.0,NeutPosNoSwitch,splendid,blue,1.034,['trial_opt1_shape'],[0.44760000002384004],1.0,1.0,1.0,0.44760000002384004,0.44760000002384004,1,1.0
test3,test3_stroop.csv,2,2020-01-01_00h00.00.000,stroop_artemis_2025.2.3,2025.2.4,59.88023952,Linux armv81,11.0,2.0,emotional,positive,95.0,Posx3,0.0,,treasure,blue,1.184,['trial_opt1_shape'],[0.41330000001192957],1.0,1.0,1.0,0.41330000001192957,0.41330000001192957,1,1.0
test3,test3_stroop.csv,2,2020-01-01_00h00.00.000,stroop_artemis_2025.2.3,2025.2.4,59.88023952,Linux armv81,12.0,2.0,emotional,positive,95.0,Posx3,1.0,PosSwitch,kiss,hotpink,1.15,['trial_opt3_shape'],[0.5806000000238214],1.0,3.0,3.0,0.5806000000238214,0.5806000000238214,3,1.0
test3,test3_stroop.csv,2,2020-01-01_00h00.00.000,stroop_artemis_2025.2.3,2025.2.4,59.88023952,Linux armv81,13.0,2.0,emotional,neutral,96.0,Neutx4_Pos,1.0,,decorate,blue,1.05,['trial_opt1_shape'],[0.6309999999999718],1.0,1.0,1.0,0.6309999999999718,0.6309999999999718,1,1.0
test3,test3_stroop.csv,2,2020-01-01_00h00.00.000,stroop_artemis_2025.2.3,2025.2.4,59.88023952,Linux armv81,14.0,2.0,emotional,neutral,96.0,Neutx4_Pos,0.0,,interview,blue,1.2,['trial_opt1_shape'],[0.5470999999642459],1.0,1.0,1.0,0.5470999999642459,0.5470999999642459,1,1.0
test3,test3_stroop.csv,2,2020-01-01_00h00.00.000,stroop_artemis_2025.2.3,2025.2.4,59.88023952,Linux armv81,15.0,2.0,emotional,positive,96.0,Neutx4_Pos,0.0,NeutPosNoSwitch,generous,blue,1.067,['trial_opt1_shape'],[0.39939999997613995],1.0,1.0,1.0,0.39939999997613995,0.39939999997613995,1,1.0
test3,test3_stroop.csv,2,2020-01-01_00h00.00.000,stroop_artemis_2025.2.3,2025.2.4,59.88023952,Linux armv81,16.0,2.0,emotional,neutral,97.0,Neutx3_Neg,1.0,,pill,saddlebrown,1.034,['trial_opt2_shape'],[0.5834000000357378],1.0,2.0,2.0,0.5834000000357378,0.5834000000357378,2,1.0
test3,test3_stroop.csv,2,2020-01-01_00h00.00.000,stroop_artemis_2025.2.3,2025.2.4,59.88023952,Linux armv81,17.0,2.0,emotional,neutral,97.0,Neutx3_Neg,0.0,,brass,saddlebrown,1.0,['trial_opt2_shape'],[0.4969000000357937],1.0,2.0,2.0,0.4969000000357937,0.4969000000357937,2,1.0
test3,test3_stroop.csv,2,2020-01-01_00h00.00.000,stroop_artemis_2025.2.3,2025.2.4,59.88023952,Linux armv81,18.0,2.0,emotional,negative,97.0,Neutx3_Neg,0.0,NeutNegNoSwitch,stubborn,saddlebrown,1.05,['trial_opt2_shape'],[0.5306000000238669],1.0,2.0,2.0,0.5306000000238669,0.5306000000238669,2,1.0
test3,test3_stroop.csv,2,2020-01-01_00h00.00.000,stroop_artemis_2025.2.3,2025.2.4,59.88023952,Linux armv81,19.0,2.0,emotional,neutral,98.0,Neutx5_Pos,1.0,,presenter,blue,1.084,['trial_opt1_shape'],[0.6977000000476892],1.0,1.0,1.0,0.6977000000476892,0.6977000000476892,1,1.0
test3,test3_stroop.csv,2,2020-01-01_00h00.00.000,stroop_artemis_2025.2.3,2025.2.4,59.88023952,Linux armv81,20.0,2.0,emotional,neutral,98.0,Neutx5_Pos,0.0,,info,blue,1.1,['trial_opt1_shape'],[0.6659999999999968],1.0,1.0,1.0,0.6659999999999968,0.6659999999999968,1,1.0
test3,test3_stroop.csv,2,2020-01-01_00h00.00.000,stroop_artemis_2025.2.3,2025.2.4,59.88023952,Linux armv81,21.0,2.0,emotional,positive,98.0,Neutx5_Pos,0.0,NeutPosNoSwitch,pleasant,blue,1.184,['trial_opt1_shape'],[0.39699999999999136],1.0,1.0,1.0,0.39699999999999136,0.39699999999999136,1,1.0
test3,test3_stroop.csv,2,2020-01-01_00h00.00.000,stroop_artemis_2025.2.3,2025.2.4,59.88023952,Linux armv81,22.0,2.0,emotional,neutral,99.0,Neutx3_Pos,1.0,,spinner,saddlebrown,1.15,['trial_opt2_shape'],[0.6309999999999718],1.0,2.0,2.0,0.6309999999999718,0.6309999999999718,2,1.0
test3,test3_stroop.csv,2,2020-01-01_00h00.00.000,stroop_artemis_2025.2.3,2025.2.4,59.88023952,Linux armv81,23.0,2.0,emotional,neutral,99.0,Neutx3_Pos,0.0,,motor,saddlebrown,1.134,['trial_opt2_shape'],[0.6304999999999836],1.0,2.0,2.0,0.6304999999999836,0.6304999999999836,2,1.0
test3,test3_stroop.csv,2,2020-01-01_00h00.00.000,stroop_artemis_2025.2.3,2025.2.4,59.88023952,Linux armv81,24.0,2.0,emotional,positive,99.0,Neutx3_Pos,0.0,NeutPosNoSwitch,hope,saddlebrown,1.017,['trial_opt2_shape'],[0.6477999999523263],1.0,2.0,2.0,0.6477999999523263,0.6477999999523263,2,1.0
test3,test3_stroop.csv,2,2020-01-01_00h00.00.000,stroop_artemis_2025.2.3,2025.2.4,59.88023952,Linux armv81,25.0,2.0,emotional,neutral,100.0,Neutx2_Pos,1.0,,soapy,hotpink,1.117,['trial_opt3_shape'],[0.6144000000357437],1.0,3.0,3.0,0.6144000000357437,0.6144000000357437,3,1.0
test3,test3_stroop.csv,2,2020-01-01_00h00.00.000,stroop_artemis_2025.2.3,2025.2.4,59.88023952,Linux armv81,26.0,2.0,emotional,neutral,100.0,Neutx2_Pos,0.0,,horseback,hotpink,1.167,['trial_opt3_shape'],[0.5305000000000177],1.0,3.0,3.0,0.5305000000000177,0.5305000000000177,3,1.0
test3,test3_stroop.csv,2,2020-01-01_00h00.00.000,stroop_artemis_2025.2.3,2025.2.4,59.88023952,Linux armv81,27.0,2.0,emotional,positive,100.0,Neutx2_Pos,1.0,NeutPosSwitch,clever,saddlebrown,1.034,['trial_opt2_shape'],[0.6632999999523008],1.0,2.0,2.0,0.6632999999523008,0.6632999999523008,2,1.0
test3,test3_stroop.csv,2,2020-01-01_00h00.00.000,stroop_artemis_2025.2.3,2025.2.4,59.88023952,Linux armv81,28.0,2.0,emotional,neutral,101.0,Neutx2_Pos,1.0,,countdown,hotpink,1.05,['trial_opt3_shape'],[0.76400000000001],1.0,3.0,3.0,0.76400000000001,0.76400000000001,3,1.0
test3,test3_stroop.csv,2,2020-01-01_00h00.00.000,stroop_artemis_2025.2.3,2025.2.4,59.88023952,Linux armv81,29.0,2.0,emotional,neutral,101.0,Neutx2_Pos,0.0,,plate,hotpink,1.184,['trial_opt3_shape'],[0.6638000000119177],1.0,3.0,3.0,0.6638000000119177,0.6638000000119177,3,1.0
test3,test3_stroop.csv,2,2020-01-01_00h00.00.000,stroop_artemis_2025.2.3,2025.2.4,59.88023952,Linux armv81,30.0,2.0,emotional,positive,101.0,Neutx2_Pos,0.0,NeutPosNoSwitch,friendship,hotpink,1.017,['trial_opt3_shape'],[0.5326000000238764],1.0,3.0,3.0,0.5326000000238764,0.5326000000238764,3,1.0
test3,test3_stroop.csv,2,2020-01-01_00h00.00.000,stroop_artemis_2025.2.3,2025.2.4,59.88023952,Linux armv81,31.0,2.0,emotional,negative,102.0,Negx2,1.0,,evil,saddlebrown,1.167,['trial_opt2_shape'],[0.7470000000000141],1.0,2.0,2.0,0.7470000000000141,0.7470000000000141,2,1.0
test3,test3_stroop.csv,2,2020-01-01_00h00.00.000,stroop_artemis_2025.2.3,2025.2.4,59.88023952,Linux armv81,32.0,2.0,emotional,negative,102.0,Negx2,1.0,NegSwitch,scared,hotpink,1.067,['trial_opt3_shape'],[0.646900000035771],1.0,3.0,3.0,0.646900000035771,0.646900000035771,3,1.0
test3,test3_stroop.csv,2,2020-01-01_00h00.00.000,stroop_artemis_2025.2.3,2025.2.4,59.88023952,Linux armv81,33.0,2.0,emotional,neutral,103.0,Neutx3_Neg,1.0,,volcano,saddlebrown,1.134,['trial_opt2_shape'],[0.5801000000238332],1.0,2.0,2.0,0.5801000000238332,0.5801000000238332,2,1.0
test3,test3_stroop.csv,2,2020-01-01_00h00.00.000,stroop_artemis_2025.2.3,2025.2.4,59.88023952,Linux armv81,34.0,2.0,emotional,neutral,103.0,Neutx3_Neg,0.0,,urgency,saddlebrown,1.1,['trial_opt2_shape'],[0.5803000000119027],1.0,2.0,2.0,0.5803000000119027,0.5803000000119027,2,1.0
test3,test3_stroop.csv,2,2020-01-01_00h00.00.000,stroop_artemis_2025.2.3,2025.2.4,59.88023952,Linux armv81,35.0,2.0,emotional,negative,103.0,Neutx3_Neg,1.0,NeutNegSwitch,worthless,blue,1.084,['trial_opt1_shape'],[0.4820999999642481],1.0,1.0,1.0,0.4820999999642481,0.4820999999642481,1,1.0
test3,test3_stroop.csv,2,2020-01-01_00h00.00.000,stroop_artemis_2025.2.3,2025.2.4,59.88023952,Linux armv81,36.0,2.0,emotional,neutral,104.0,Neutx2_Neg,1.0,,rapid,hotpink,1.0,['trial_opt3_shape'],[0.5306000000238669],1.0,3.0,3.0,0.5306000000238669,0.5306000000238669,3,1.0
test3,test3_stroop.csv,2,2020-01-01_00h00.00.000,stroop_artemis_2025.2.3,2025.2.4,59.88023952,Linux armv81,37.0,2.0,emotional,neutral,104.0,Neutx2_Neg,0.0,,mystery,hotpink,1.15,['trial_opt3_shape'],[0.6476999999880491],1.0,3.0,3.0,0.6476999999880491,0.6476999999880491,3,1.0
test3,test3_stroop.csv,2,2020-01-01_00h00.00.000,stroop_artemis_2025.2.3,2025.2.4,59.88023952,Linux armv81,38.0,2.0,emotional,negative,104.0,Neutx2_Neg,1.0,NeutNegSwitch,funeral,blue,1.117,['trial_opt1_shape'],[0.3966999999880727],1.0,1.0,1.0,0.3966999999880727,0.3966999999880727,1,1.0
test3,test3_stroop.csv,2,2020-01-01_00h00.00.000,stroop_artemis_2025.2.3,2025.2.4,59.88023952,Linux armv81,39.0,2.0,emotional,neutral,105.0,Neutx4_Neg,1.0,,environment,saddlebrown,1.2,['trial_opt2_shape'],[0.547199999988095],1.0,2.0,2.0,0.547199999988095,0.547199999988095,2,1.0
test3,test3_stroop.csv,2,2020-01-01_00h00.00.000,stroop_artemis_2025.2.3,2025.2.4,59.88023952,Linux armv81,40.0,2.0,emotional,neutral,105.0,Neutx4_Neg,0.0,,heir,saddlebrown,1.167,['trial_opt2_shape'],[0.5475000000000136],1.0,2.0,2.0,0.5475000000000136,0.5475000000000136,2,1.0
test3,test3_stroop.csv,2,2020-01-01_00h00.00.000,stroop_artemis_2025.2.3,2025.2.4,59.88023952,Linux armv81,41.0,2.0,emotional,negative,105.0,Neutx4_Neg,0.0,NeutNegNoSwitch,stress,saddlebrown,1.0,['trial_opt2_shape'],[0.49699999999995725],1.0,2.0,2.0,0.49699999999995725,0.49699999999995725,2,1.0
test3,test3_stroop.csv,2,2020-01-01_00h00.00.000,stroop_artemis_2025.2.3,2025.2.4,59.88023952,Linux armv81,42.0,2.0,emotional,neutral,106.0,Neutx5_Neg,1.0,,spray,blue,1.184,['trial_opt1_shape'],[0.6968999999761536],1.0,1.0,1.0,0.6968999999761536,0.6968999999761536,1,1.0
test3,test3_stroop.csv,2,2020-01-01_00h00.00.000,stroop_artemis_2025.2.3,2025.2.4,59.88023952,Linux armv81,43.0,2.0,emotional,neutral,106.0,Neutx5_Neg,0.0,,buzzer,blue,1.2,['trial_opt1_shape'],[0.6468000000119218],1.0,1.0,1.0,0.6468000000119218,0.6468000000119218,1,1.0
test3,test3_stroop.csv,2,2020-01-01_00h00.00.000,stroop_artemis_2025.2.3,2025.2.4,59.88023952,Linux armv81,44.0,2.0,emotional,negative,106.0,Neutx5_Neg,1.0,NeutNegSwitch,lonely,hotpink,1.067,['trial_opt3_shape'],[0.6140000000000327],1.0,3.0,3.0,0.6140000000000327,0.6140000000000327,3,1.0
test3,test3_stroop.csv,2,2020-01-01_00h00.00.000,stroop_artemis_2025.2.3,2025.2.4,59.88023952,Linux armv81,45.0,2.0,emotional,neutral,107.0,Neutx4_Neg,1.0,,checkers,saddlebrown,1.134,['trial_opt2_shape'],[0.76400000000001],1.0,2.0,2.0,0.76400000000001,0.76400000000001,2,1.0
test3,test3_stroop.csv,2,2020-01-01_00h00.00.000,stroop_artemis_2025.2.3,2025.2.4,59.88023952,Linux armv81,46.0,2.0,emotional,neutral,107.0,Neutx4_Neg,0.0,,shout,saddlebrown,1.117,['trial_opt2_shape'],[0.6473999999761872],1.0,2.0,2.0,0.6473999999761872,0.6473999999761872,2,1.0
test3,test3_stroop.csv,2,2020-01-01_00h00.00.000,stroop_artemis_2025.2.3,2025.2.4,59.88023952,Linux armv81,47.0,2.0,emotional,negative,107.0,Neutx4_Neg,1.0,NeutNegSwitch,immature,blue,1.034,['trial_opt1_shape'],[0.44680000001199005],1.0,1.0,1.0,0.44680000001199005,0.44680000001199005,1,1.0
test3,test3_stroop.csv,2,2020-01-01_00h00.00.000,stroop_artemis_2025.2.3,2025.2.4,59.88023952,Linux armv81,48.0,2.0,emotional,positive,108.0,Posx3,1.0,,joke,saddlebrown,1.05,['trial_opt2_shape'],[0.6135000000000446],1.0,2.0,2.0,0.6135000000000446,0.6135000000000446,2,1.0
test3,test3_stroop.csv,2,2020-01-01_00h00.00.000,stroop_artemis_2025.2.3,2025.2.4,59.88023952,Linux armv81,49.0,2.0,emotional,positive,108.0,Posx3,0.0,,funny,saddlebrown,1.084,['trial_opt2_shape'],[0.5801999999880536],1.0,2.0,2.0,0.5801999999880536,0.5801999999880536,2,1.0
test3,test3_stroop.csv,2,2020-01-01_00h00.00.000,stroop_artemis_2025.2.3,2025.2.4,59.88023952,Linux armv81,50.0,2.0,emotional,positive,108.0,Posx3,1.0,PosSwitch,secure,blue,1.1,['trial_opt1_shape'],[0.6148000000118827],1.0,1.0,1.0,0.6148000000118827,0.6148000000118827,1,1.0
test3,test3_stroop.csv,2,2020-01-01_00h00.00.000,stroop_artemis_2025.2.3,2025.2.4,59.88023952,Linux armv81,51.0,2.0,emotional,neutral,109.0,Neutx4_Pos,1.0,,gooey,hotpink,1.017,['trial_opt3_shape'],[0.5806000000238782],1.0,3.0,3.0,0.5806000000238782,0.5806000000238782,3,1.0
test3,test3_stroop.csv,2,2020-01-01_00h00.00.000,stroop_artemis_2025.2.3,2025.2.4,59.88023952,Linux armv81,52.0,2.0,emotional,neutral,109.0,Neutx4_Pos,0.0,,town,hotpink,1.15,['trial_opt3_shape'],[0.7466999999880954],1.0,3.0,3.0,0.7466999999880954,0.7466999999880954,3,1.0
test3,test3_stroop.csv,2,2020-01-01_00h00.00.000,stroop_artemis_2025.2.3,2025.2.4,59.88023952,Linux armv81,53.0,2.0,emotional,positive,109.0,Neutx4_Pos,0.0,NeutPosNoSwitch,tranquil,hotpink,1.2,['trial_opt3_shape'],[0.6141000000238819],1.0,3.0,3.0,0.6141000000238819,0.6141000000238819,3,1.0
test3,test3_stroop.csv,2,2020-01-01_00h00.00.000,stroop_artemis_2025.2.3,2025.2.4,59.88023952,Linux armv81,54.0,2.0,emotional,neutral,110.0,Neutx5_Pos,1.0,,trunk,saddlebrown,1.05,['trial_opt2_shape'],[0.7139000000357782],1.0,2.0,2.0,0.7139000000357782,0.7139000000357782,2,1.0
test3,test3_stroop.csv,2,2020-01-01_00h00.00.000,stroop_artemis_2025.2.3,2025.2.4,59.88023952,Linux armv81,55.0,2.0,emotional,neutral,110.0,Neutx5_Pos,0.0,,display,saddlebrown,1.067,['trial_opt2_shape'],[0.6305999999641472],1.0,2.0,2.0,0.6305999999641472,0.6305999999641472,2,1.0
test3,test3_stroop.csv,2,2020-01-01_00h00.00.000,stroop_artemis_2025.2.3,2025.2.4,59.88023952,Linux armv81,56.0,2.0,emotional,positive,110.0,Neutx5_Pos,1.0,NeutPosSwitch,lucky,hotpink,1.017,['trial_opt3_shape'],[0.5804000000358656],1.0,3.0,3.0,0.5804000000358656,0.5804000000358656,3,1.0
