id,filename,session,datetime,exp_name,software_version,framerate,os,response,rt,trial,hand,block
test2,test2_fo.csv,1,2020-01-01_12h00.00.000,FO_updated_new,2020.1.2,60,Win32,space,1.6919,0.0,dominant,dominant
test2,test2_fo.csv,1,2020-01-01_12h00.00.000,FO_updated_new,2020.1.2,60,Win32,space,0.1848,0.0,dominant,dominant
test2,test2_fo.csv,1,2020-01-01_12h00.00.000,FO_updated_new,2020.1.2,60,Win32,space,0.154,0.0,dominant,dominant
test2,test2_fo.csv,1,2020-01-01_12h00.00.000,FO_updated_new,2020.1.2,60,Win32,space,0.1604,0.0,dominant,dominant
test2,test2_fo.csv,1,2020-01-01_12h00.00.000,FO_updated_new,2020.1.2,60,Win32,space,0.1707,0.0,dominant,dominant
test2,test2_fo.csv,1,2020-01-01_12h00.00.000,FO_updated_new,2020.1.2,60,Win32,space,0.1523,0.0,dominant,dominant
test2,test2_fo.csv,1,2020-01-01_12h00.00.000,FO_updated_new,2020.1.2,60,Win32,space,0.1639,0.0,dominant,dominant
test2,test2_fo.csv,1,2020-01-01_12h00.00.000,FO_updated_new,2020.1.2,60,Win32,space,0.1831,0.0,dominant,dominant
test2,test2_fo.csv,1,2020-01-01_12h00.00.000,FO_updated_new,2020.1.2,60,Win32,space,0.2051,0.0,dominant,dominant
test2,test2_fo.csv,1,2020-01-01_12h00.00.000,FO_updated_new,2020.1.2,60,Win32,space,0.142,0.0,dominant,dominant
test2,test2_fo.csv,1,2020-01-01_12h00.00.000,FO_updated_new,2020.1.2,60,Win32,space,0.1441,0.0,dominant,dominant
test2,test2_fo.csv,1,2020-01-01_12h00.00.000,FO_updated_new,2020.1.2,60,Win32,space,0.1461,0.0,dominant,dominant
test2,test2_fo.csv,1,2020-01-01_12h00.00.000,FO_updated_new,2020.1.2,60,Win32,space,0.1314,0.0,dominant,dominant
test2,test2_fo.csv,1,2020-01-01_12h00.00.000,FO_updated_new,2020.1.2,60,Win32,space,0.0867,0.0,dominant,dominant
test2,test2_fo.csv,1,2020-01-01_12h00.00.000,FO_updated_new,2020.1.2,60,Win32,space,0.28,0.0,dominant,dominant
test2,test2_fo.csv,1,2020-01-01_12h00.00.000,FO_updated_new,2020.1.2,60,Win32,space,0.1083,0.0,dominant,dominant
test2,test2_fo.csv,1,2020-01-01_12h00.00.000,FO_updated_new,2020.1.2,60,Win32,space,0.1197,0.0,dominant,dominant
test2,test2_fo.csv,1,2020-01-01_12h00.00.000,FO_updated_new,2020.1.2,60,Win32,space,0.0952,0.0,dominant,dominant
test2,test2_fo.csv,1,2020-01-01_12h00.00.000,FO_updated_new,2020.1.2,60,Win32,space,0.1004,0.0,dominant,dominant
test2,test2_fo.csv,1,2020-01-01_12h00.00.000,FO_updated_new,2020.1.2,60,Win32,space,0.0989,0.0,dominant,dominant
test2,test2_fo.csv,1,2020-01-01_12h00.00.000,FO_updated_new,2020.1.2,60,Win32,space,0.1482,0.0,dominant,dominant
test2,test2_fo.csv,1,2020-01-01_12h00.00.000,FO_updated_new,2020.1.2,60,Win32,space,0.151,0.0,dominant,dominant
test2,test2_fo.csv,1,2020-01-01_12h00.00.000,FO_updated_new,2020.1.2,60,Win32,space,0.3298,0.0,dominant,dominant
test2,test2_fo.csv,1,2020-01-01_12h00.00.000,FO_updated_new,2020.1.2,60,Win32,space,0.1581,0.0,dominant,dominant
test2,test2_fo.csv,1,2020-01-01_12h00.00.000,FO_updated_new,2020.1.2,60,Win32,space,0.1334,0.0,dominant,dominant
test2,test2_fo.csv,1,2020-01-01_12h00.00.000,FO_updated_new,2020.1.2,60,Win32,space,0.1292,0.0,dominant,dominant
test2,test2_fo.csv,1,2020-01-01_12h00.00.000,FO_updated_new,2020.1.2,60,Win32,space,0.1377,0.0,dominant,dominant
test2,test2_fo.csv,1,2020-01-01_12h00.00.000,FO_updated_new,2020.1.2,60,Win32,space,0.1357,0.0,dominant,dominant
test2,test2_fo.csv,1,2020-01-01_12h00.00.000,FO_updated_new,2020.1.2,60,Win32,space,0.1327,0.0,dominant,dominant
test2,test2_fo.csv,1,2020-01-01_12h00.00.000,FO_updated_new,2020.1.2,60,Win32,space,0.1295,0.0,dominant,dominant
test2,test2_fo.csv,1,2020-01-01_12h00.00.000,FO_updated_new,2020.1.2,60,Win32,space,0.1484,0.0,dominant,dominant
test2,test2_fo.csv,1,2020-01-01_12h00.00.000,FO_updated_new,2020.1.2,60,Win32,space,0.1516,0.0,dominant,dominant
test2,test2_fo.csv,1,2020-01-01_12h00.00.000,FO_updated_new,2020.1.2,60,Win32,space,0.1382,0.0,dominant,dominant
test2,test2_fo.csv,1,2020-01-01_12h00.00.000,FO_updated_new,2020.1.2,60,Win32,space,0.1508,0.0,dominant,dominant
test2,test2_fo.csv,1,2020-01-01_12h00.00.000,FO_updated_new,2020.1.2,60,Win32,space,0.138,0.0,dominant,dominant
test2,test2_fo.csv,1,2020-01-01_12h00.00.000,FO_updated_new,2020.1.2,60,Win32,space,0.1362,0.0,dominant,dominant
test2,test2_fo.csv,1,2020-01-01_12h00.00.000,FO_updated_new,2020.1.2,60,Win32,space,0.147,0.0,dominant,dominant
test2,test2_fo.csv,1,2020-01-01_12h00.00.000,FO_updated_new,2020.1.2,60,Win32,space,0.1552,0.0,dominant,dominant
test2,test2_fo.csv,1,2020-01-01_12h00.00.000,FO_updated_new,2020.1.2,60,Win32,space,0.1471,0.0,dominant,dominant
test2,test2_fo.csv,1,2020-01-01_12h00.00.000,FO_updated_new,2020.1.2,60,Win32,space,0.1503,0.0,dominant,dominant
test2,test2_fo.csv,1,2020-01-01_12h00.00.000,FO_updated_new,2020.1.2,60,Win32,space,0.1378,0.0,dominant,dominant
test2,test2_fo.csv,1,2020-01-01_12h00.00.000,FO_updated_new,2020.1.2,60,Win32,space,0.1438,0.0,dominant,dominant
test2,test2_fo.csv,1,2020-01-01_12h00.00.000,FO_updated_new,2020.1.2,60,Win32,space,0.1599,0.0,dominant,dominant
test2,test2_fo.csv,1,2020-01-01_12h00.00.000,FO_updated_new,2020.1.2,60,Win32,space,0.152,0.0,dominant,dominant
test2,test2_fo.csv,1,2020-01-01_12h00.00.000,FO_updated_new,2020.1.2,60,Win32,space,0.1312,0.0,dominant,dominant
test2,test2_fo.csv,1,2020-01-01_12h00.00.000,FO_updated_new,2020.1.2,60,Win32,space,0.1652,0.0,dominant,dominant
test2,test2_fo.csv,1,2020-01-01_12h00.00.000,FO_updated_new,2020.1.2,60,Win32,space,0.1513,0.0,dominant,dominant
test2,test2_fo.csv,1,2020-01-01_12h00.00.000,FO_updated_new,2020.1.2,60,Win32,space,0.1475,0.0,dominant,dominant
test2,test2_fo.csv,1,2020-01-01_12h00.00.000,FO_updated_new,2020.1.2,60,Win32,space,0.1548,0.0,dominant,dominant
test2,test2_fo.csv,1,2020-01-01_12h00.00.000,FO_updated_new,2020.1.2,60,Win32,space,0.1551,0.0,dominant,dominant
test2,test2_fo.csv,1,2020-01-01_12h00.00.000,FO_updated_new,2020.1.2,60,Win32,space,0.1483,0.0,dominant,dominant
test2,test2_fo.csv,1,2020-01-01_12h00.00.000,FO_updated_new,2020.1.2,60,Win32,space,0.1643,0.0,dominant,dominant
test2,test2_fo.csv,1,2020-01-01_12h00.00.000,FO_updated_new,2020.1.2,60,Win32,space,0.1679,0.0,dominant,dominant
test2,test2_fo.csv,1,2020-01-01_12h00.00.000,FO_updated_new,2020.1.2,60,Win32,space,0.1558,0.0,dominant,dominant
test2,test2_fo.csv,1,2020-01-01_12h00.00.000,FO_updated_new,2020.1.2,60,Win32,space,0.1545,0.0,dominant,dominant
test2,test2_fo.csv,1,2020-01-01_12h00.00.000,FO_updated_new,2020.1.2,60,Win32,space,0.15,0.0,dominant,dominant
test2,test2_fo.csv,1,2020-01-01_12h00.00.000,FO_updated_new,2020.1.2,60,Win32,space,0.1514,0.0,dominant,dominant
test2,test2_fo.csv,1,2020-01-01_12h00.00.000,FO_updated_new,2020.1.2,60,Win32,space,0.1584,0.0,dominant,dominant
test2,test2_fo.csv,1,2020-01-01_12h00.00.000,FO_updated_new,2020.1.2,60,Win32,space,0.153,0.0,dominant,dominant
test2,test2_fo.csv,1,2020-01-01_12h00.00.000,FO_updated_new,2020.1.2,60,Win32,space,0.1432,0.0,dominant,dominant
test2,test2_fo.csv,1,2020-01-01_12h00.00.000,FO_updated_new,2020.1.2,60,Win32,space,0.1622,0.0,dominant,dominant
test2,test2_fo.csv,1,2020-01-01_12h00.00.000,FO_updated_new,2020.1.2,60,Win32,space,0.1539,0.0,dominant,dominant
test2,test2_fo.csv,1,2020-01-01_12h00.00.000,FO_updated_new,2020.1.2,60,Win32,space,0.1582,0.0,dominant,dominant
test2,test2_fo.csv,1,2020-01-01_12h00.00.000,FO_updated_new,2020.1.2,60,Win32,space,0.149,0.0,dominant,dominant
test2,test2_fo.csv,1,2020-01-01_12h00.00.000,FO_updated_new,2020.1.2,60,Win32,space,0.1577,0.0,dominant,dominant
test2,test2_fo.csv,1,2020-01-01_12h00.00.000,FO_updated_new,2020.1.2,60,Win32,space,0.1678,0.0,dominant,dominant
test2,test2_fo.csv,1,2020-01-01_12h00.00.000,FO_updated_new,2020.1.2,60,Win32,space,0.1502,0.0,dominant,dominant
test2,test2_fo.csv,1,2020-01-01_12h00.00.000,FO_updated_new,2020.1.2,60,Win32,space,0.143,0.0,dominant,dominant
test2,test2_fo.csv,1,2020-01-01_12h00.00.000,FO_updated_new,2020.1.2,60,Win32,space,0.1557,0.0,dominant,dominant
test2,test2_fo.csv,1,2020-01-01_12h00.00.000,FO_updated_new,2020.1.2,60,Win32,space,0.1655,0.0,dominant,dominant
test2,test2_fo.csv,1,2020-01-01_12h00.00.000,FO_updated_new,2020.1.2,60,Win32,space,0.1823,0.0,dominant,dominant
test2,test2_fo.csv,1,2020-01-01_12h00.00.000,FO_updated_new,2020.1.2,60,Win32,space,0.1739,0.0,dominant,dominant
test2,test2_fo.csv,1,2020-01-01_12h00.00.000,FO_updated_new,2020.1.2,60,Win32,space,0.1708,0.0,dominant,dominant
test2,test2_fo.csv,1,2020-01-01_12h00.00.000,FO_updated_new,2020.1.2,60,Win32,space,0.1761,0.0,dominant,dominant
test2,test2_fo.csv,1,2020-01-01_12h00.00.000,FO_updated_new,2020.1.2,60,Win32,space,0.1682,0.0,dominant,dominant
test2,test2_fo.csv,1,2020-01-01_12h00.00.000,FO_updated_new,2020.1.2,60,Win32,space,0.1677,0.0,dominant,dominant
test2,test2_fo.csv,1,2020-01-01_12h00.00.000,FO_updated_new,2020.1.2,60,Win32,space,0.1582,0.0,dominant,dominant
test2,test2_fo.csv,1,2020-01-01_12h00.00.000,FO_updated_new,2020.1.2,60,Win32,space,0.1826,0.0,dominant,dominant
test2,test2_fo.csv,1,2020-01-01_12h00.00.000,FO_updated_new,2020.1.2,60,Win32,space,0.1755,0.0,dominant,dominant
test2,test2_fo.csv,1,2020-01-01_12h00.00.000,FO_updated_new,2020.1.2,60,Win32,space,0.1558,0.0,dominant,dominant
test2,test2_fo.csv,1,2020-01-01_12h00.00.000,FO_updated_new,2020.1.2,60,Win32,space,0.1544,0.0,dominant,dominant
test2,test2_fo.csv,1,2020-01-01_12h00.00.000,FO_updated_new,2020.1.2,60,Win32,space,0.1783,0.0,dominant,dominant
test2,test2_fo.csv,1,2020-01-01_12h00.00.000,FO_updated_new,2020.1.2,60,Win32,space,0.1755,0.0,dominant,dominant
test2,test2_fo.csv,1,2020-01-01_12h00.00.000,FO_updated_new,2020.1.2,60,Win32,space,0.171,0.0,dominant,dominant
test2,test2_fo.csv,1,2020-01-01_12h00.00.000,FO_updated_new,2020.1.2,60,Win32,space,0.1619,0.0,dominant,dominant
test2,test2_fo.csv,1,2020-01-01_12h00.00.000,FO_updated_new,2020.1.2,60,Win32,space,0.1453,0.0,dominant,dominant
test2,test2_fo.csv,1,2020-01-01_12h00.00.000,FO_updated_new,2020.1.2,60,Win32,space,0.1802,0.0,dominant,dominant
test2,test2_fo.csv,1,2020-01-01_12h00.00.000,FO_updated_new,2020.1.2,60,Win32,space,0.1672,0.0,dominant,dominant
test2,test2_fo.csv,1,2020-01-01_12h00.00.000,FO_updated_new,2020.1.2,60,Win32,space,0.1604,0.0,dominant,dominant
test2,test2_fo.csv,1,2020-01-01_12h00.00.000,FO_updated_new,2020.1.2,60,Win32,space,0.1682,0.0,dominant,dominant
test2,test2_fo.csv,1,2020-01-01_12h00.00.000,FO_updated_new,2020.1.2,60,Win32,space,0.1762,0.0,dominant,dominant
test2,test2_fo.csv,1,2020-01-01_12h00.00.000,FO_updated_new,2020.1.2,60,Win32,space,0.1715,0.0,dominant,dominant
test2,test2_fo.csv,1,2020-01-01_12h00.00.000,FO_updated_new,2020.1.2,60,Win32,space,0.1558,0.0,dominant,dominant
test2,test2_fo.csv,1,2020-01-01_12h00.00.000,FO_updated_new,2020.1.2,60,Win32,space,0.1591,0.0,dominant,dominant
test2,test2_fo.csv,1,2020-01-01_12h00.00.000,FO_updated_new,2020.1.2,60,Win32,space,0.1793,0.0,dominant,dominant
test2,test2_fo.csv,1,2020-01-01_12h00.00.000,FO_updated_new,2020.1.2,60,Win32,space,0.1782,0.0,dominant,dominant
test2,test2_fo.csv,1,2020-01-01_12h00.00.000,FO_updated_new,2020.1.2,60,Win32,space,0.185,0.0,dominant,dominant
test2,test2_fo.csv,1,2020-01-01_12h00.00.000,FO_updated_new,2020.1.2,60,Win32,space,0.1699,0.0,dominant,dominant
test2,test2_fo.csv,1,2020-01-01_12h00.00.000,FO_updated_new,2020.1.2,60,Win32,space,0.1636,0.0,dominant,dominant
test2,test2_fo.csv,1,2020-01-01_12h00.00.000,FO_updated_new,2020.1.2,60,Win32,space,0.1749,0.0,dominant,dominant
test2,test2_fo.csv,1,2020-01-01_12h00.00.000,FO_updated_new,2020.1.2,60,Win32,space,0.1775,0.0,dominant,dominant
test2,test2_fo.csv,1,2020-01-01_12h00.00.000,FO_updated_new,2020.1.2,60,Win32,space,0.1771,0.0,dominant,dominant
test2,test2_fo.csv,1,2020-01-01_12h00.00.000,FO_updated_new,2020.1.2,60,Win32,space,0.1698,0.0,dominant,dominant
test2,test2_fo.csv,1,2020-01-01_12h00.00.000,FO_updated_new,2020.1.2,60,Win32,space,0.1715,0.0,dominant,dominant
test2,test2_fo.csv,1,2020-01-01_12h00.00.000,FO_updated_new,2020.1.2,60,Win32,space,0.1741,0.0,dominant,dominant
test2,test2_fo.csv,1,2020-01-01_12h00.00.000,FO_updated_new,2020.1.2,60,Win32,space,0.173,0.0,dominant,dominant
test2,test2_fo.csv,1,2020-01-01_12h00.00.000,FO_updated_new,2020.1.2,60,Win32,space,0.1915,0.0,dominant,dominant
test2,test2_fo.csv,1,2020-01-01_12h00.00.000,FO_updated_new,2020.1.2,60,Win32,space,0.1973,0.0,dominant,dominant
test2,test2_fo.csv,1,2020-01-01_12h00.00.000,FO_updated_new,2020.1.2,60,Win32,space,0.2034,0.0,dominant,dominant
test2,test2_fo.csv,1,2020-01-01_12h00.00.000,FO_updated_new,2020.1.2,60,Win32,space,0.1808,0.0,dominant,dominant
test2,test2_fo.csv,1,2020-01-01_12h00.00.000,FO_updated_new,2020.1.2,60,Win32,space,0.1934,0.0,dominant,dominant
test2,test2_fo.csv,1,2020-01-01_12h00.00.000,FO_updated_new,2020.1.2,60,Win32,space,0.1975,0.0,dominant,dominant
test2,test2_fo.csv,1,2020-01-01_12h00.00.000,FO_updated_new,2020.1.2,60,Win32,space,0.2116,0.0,dominant,dominant
test2,test2_fo.csv,1,2020-01-01_12h00.00.000,FO_updated_new,2020.1.2,60,Win32,space,0.1796,0.0,dominant,dominant
test2,test2_fo.csv,1,2020-01-01_12h00.00.000,FO_updated_new,2020.1.2,60,Win32,space,0.1886,0.0,dominant,dominant
test2,test2_fo.csv,1,2020-01-01_12h00.00.000,FO_updated_new,2020.1.2,60,Win32,space,0.1767,0.0,dominant,dominant
test2,test2_fo.csv,1,2020-01-01_12h00.00.000,FO_updated_new,2020.1.2,60,Win32,space,0.1889,0.0,dominant,dominant
test2,test2_fo.csv,1,2020-01-01_12h00.00.000,FO_updated_new,2020.1.2,60,Win32,space,0.185,0.0,dominant,dominant
test2,test2_fo.csv,1,2020-01-01_12h00.00.000,FO_updated_new,2020.1.2,60,Win32,space,0.1903,0.0,dominant,dominant
test2,test2_fo.csv,1,2020-01-01_12h00.00.000,FO_updated_new,2020.1.2,60,Win32,space,0.1945,0.0,dominant,dominant
test2,test2_fo.csv,1,2020-01-01_12h00.00.000,FO_updated_new,2020.1.2,60,Win32,space,0.208,0.0,dominant,dominant
test2,test2_fo.csv,1,2020-01-01_12h00.00.000,FO_updated_new,2020.1.2,60,Win32,space,0.2075,0.0,dominant,dominant
test2,test2_fo.csv,1,2020-01-01_12h00.00.000,FO_updated_new,2020.1.2,60,Win32,space,0.197,0.0,dominant,dominant
test2,test2_fo.csv,1,2020-01-01_12h00.00.000,FO_updated_new,2020.1.2,60,Win32,space,0.2059,0.0,dominant,dominant
test2,test2_fo.csv,1,2020-01-01_12h00.00.000,FO_updated_new,2020.1.2,60,Win32,space,0.2032,0.0,dominant,dominant
test2,test2_fo.csv,1,2020-01-01_12h00.00.000,FO_updated_new,2020.1.2,60,Win32,space,0.1845,0.0,dominant,dominant
test2,test2_fo.csv,1,2020-01-01_12h00.00.000,FO_updated_new,2020.1.2,60,Win32,space,0.1785,0.0,dominant,dominant
test2,test2_fo.csv,1,2020-01-01_12h00.00.000,FO_updated_new,2020.1.2,60,Win32,space,0.1761,0.0,dominant,dominant
test2,test2_fo.csv,1,2020-01-01_12h00.00.000,FO_updated_new,2020.1.2,60,Win32,space,0.1829,0.0,dominant,dominant
test2,test2_fo.csv,1,2020-01-01_12h00.00.000,FO_updated_new,2020.1.2,60,Win32,space,0.2039,0.0,dominant,dominant
test2,test2_fo.csv,1,2020-01-01_12h00.00.000,FO_updated_new,2020.1.2,60,Win32,space,0.1861,0.0,dominant,dominant
test2,test2_fo.csv,1,2020-01-01_12h00.00.000,FO_updated_new,2020.1.2,60,Win32,space,0.1791,0.0,dominant,dominant
test2,test2_fo.csv,1,2020-01-01_12h00.00.000,FO_updated_new,2020.1.2,60,Win32,space,0.1977,0.0,dominant,dominant
test2,test2_fo.csv,1,2020-01-01_12h00.00.000,FO_updated_new,2020.1.2,60,Win32,space,0.1865,0.0,dominant,dominant
test2,test2_fo.csv,1,2020-01-01_12h00.00.000,FO_updated_new,2020.1.2,60,Win32,space,0.1544,0.0,dominant,dominant
test2,test2_fo.csv,1,2020-01-01_12h00.00.000,FO_updated_new,2020.1.2,60,Win32,space,0.1918,0.0,dominant,dominant
test2,test2_fo.csv,1,2020-01-01_12h00.00.000,FO_updated_new,2020.1.2,60,Win32,space,0.1649,0.0,dominant,dominant
test2,test2_fo.csv,1,2020-01-01_12h00.00.000,FO_updated_new,2020.1.2,60,Win32,space,0.1981,0.0,dominant,dominant
test2,test2_fo.csv,1,2020-01-01_12h00.00.000,FO_updated_new,2020.1.2,60,Win32,space,0.1815,0.0,dominant,dominant
test2,test2_fo.csv,1,2020-01-01_12h00.00.000,FO_updated_new,2020.1.2,60,Win32,space,0.1769,0.0,dominant,dominant
test2,test2_fo.csv,1,2020-01-01_12h00.00.000,FO_updated_new,2020.1.2,60,Win32,space,0.1756,0.0,dominant,dominant
test2,test2_fo.csv,1,2020-01-01_12h00.00.000,FO_updated_new,2020.1.2,60,Win32,space,0.1805,0.0,dominant,dominant
test2,test2_fo.csv,1,2020-01-01_12h00.00.000,FO_updated_new,2020.1.2,60,Win32,space,0.2042,0.0,dominant,dominant
test2,test2_fo.csv,1,2020-01-01_12h00.00.000,FO_updated_new,2020.1.2,60,Win32,space,0.1957,0.0,dominant,dominant
test2,test2_fo.csv,1,2020-01-01_12h00.00.000,FO_updated_new,2020.1.2,60,Win32,space,4.2698,0.0,nondominant,nondominant
test2,test2_fo.csv,1,2020-01-01_12h00.00.000,FO_updated_new,2020.1.2,60,Win32,space,0.1727,0.0,nondominant,nondominant
test2,test2_fo.csv,1,2020-01-01_12h00.00.000,FO_updated_new,2020.1.2,60,Win32,space,0.132,0.0,nondominant,nondominant
test2,test2_fo.csv,1,2020-01-01_12h00.00.000,FO_updated_new,2020.1.2,60,Win32,space,0.1436,0.0,nondominant,nondominant
test2,test2_fo.csv,1,2020-01-01_12h00.00.000,FO_updated_new,2020.1.2,60,Win32,space,0.1567,0.0,nondominant,nondominant
test2,test2_fo.csv,1,2020-01-01_12h00.00.000,FO_updated_new,2020.1.2,60,Win32,space,0.1509,0.0,nondominant,nondominant
test2,test2_fo.csv,1,2020-01-01_12h00.00.000,FO_updated_new,2020.1.2,60,Win32,space,0.1285,0.0,nondominant,nondominant
test2,test2_fo.csv,1,2020-01-01_12h00.00.000,FO_updated_new,2020.1.2,60,Win32,space,0.159,0.0,nondominant,nondominant
test2,test2_fo.csv,1,2020-01-01_12h00.00.000,FO_updated_new,2020.1.2,60,Win32,space,0.1533,0.0,nondominant,nondominant
test2,test2_fo.csv,1,2020-01-01_12h00.00.000,FO_updated_new,2020.1.2,60,Win32,space,0.1496,0.0,nondominant,nondominant
test2,test2_fo.csv,1,2020-01-01_12h00.00.000,FO_updated_new,2020.1.2,60,Win32,space,0.157,0.0,nondominant,nondominant
test2,test2_fo.csv,1,2020-01-01_12h00.00.000,FO_updated_new,2020.1.2,60,Win32,space,0.1536,0.0,nondominant,nondominant
test2,test2_fo.csv,1,2020-01-01_12h00.00.000,FO_updated_new,2020.1.2,60,Win32,space,0.1521,0.0,nondominant,nondominant
test2,test2_fo.csv,1,2020-01-01_12h00.00.000,FO_updated_new,2020.1.2,60,Win32,space,0.1547,0.0,nondominant,nondominant
test2,test2_fo.csv,1,2020-01-01_12h00.00.000,FO_updated_new,2020.1.2,60,Win32,space,0.16,0.0,nondominant,nondominant
test2,test2_fo.csv,1,2020-01-01_12h00.00.000,FO_updated_new,2020.1.2,60,Win32,space,0.1605,0.0,nondominant,nondominant
test2,test2_fo.csv,1,2020-01-01_12h00.00.000,FO_updated_new,2020.1.2,60,Win32,space,0.1604,0.0,nondominant,nondominant
test2,test2_fo.csv,1,2020-01-01_12h00.00.000,FO_updated_new,2020.1.2,60,Win32,space,0.1583,0.0,nondominant,nondominant
test2,test2_fo.csv,1,2020-01-01_12h00.00.000,FO_updated_new,2020.1.2,60,Win32,space,0.1674,0.0,nondominant,nondominant
test2,test2_fo.csv,1,2020-01-01_12h00.00.000,FO_updated_new,2020.1.2,60,Win32,space,0.1559,0.0,nondominant,nondominant
test2,test2_fo.csv,1,2020-01-01_12h00.00.000,FO_updated_new,2020.1.2,60,Win32,space,0.1563,0.0,nondominant,nondominant
test2,test2_fo.csv,1,2020-01-01_12h00.00.000,FO_updated_new,2020.1.2,60,Win32,space,0.1625,0.0,nondominant,nondominant
test2,test2_fo.csv,1,2020-01-01_12h00.00.000,FO_updated_new,2020.1.2,60,Win32,space,0.1842,0.0,nondominant,nondominant
test2,test2_fo.csv,1,2020-01-01_12h00.00.000,FO_updated_new,2020.1.2,60,Win32,space,0.1627,0.0,nondominant,nondominant
test2,test2_fo.csv,1,2020-01-01_12h00.00.000,FO_updated_new,2020.1.2,60,Win32,space,0.1872,0.0,nondominant,nondominant
test2,test2_fo.csv,1,2020-01-01_12h00.00.000,FO_updated_new,2020.1.2,60,Win32,space,0.1757,0.0,nondominant,nondominant
test2,test2_fo.csv,1,2020-01-01_12h00.00.000,FO_updated_new,2020.1.2,60,Win32,space,0.1754,0.0,nondominant,nondominant
test2,test2_fo.csv,1,2020-01-01_12h00.00.000,FO_updated_new,2020.1.2,60,Win32,space,0.172,0.0,nondominant,nondominant
test2,test2_fo.csv,1,2020-01-01_12h00.00.000,FO_updated_new,2020.1.2,60,Win32,space,0.1794,0.0,nondominant,nondominant
test2,test2_fo.csv,1,2020-01-01_12h00.00.000,FO_updated_new,2020.1.2,60,Win32,space,0.1764,0.0,nondominant,nondominant
test2,test2_fo.csv,1,2020-01-01_12h00.00.000,FO_updated_new,2020.1.2,60,Win32,space,0.1831,0.0,nondominant,nondominant
test2,test2_fo.csv,1,2020-01-01_12h00.00.000,FO_updated_new,2020.1.2,60,Win32,space,0.1755,0.0,nondominant,nondominant
test2,test2_fo.csv,1,2020-01-01_12h00.00.000,FO_updated_new,2020.1.2,60,Win32,space,0.1721,0.0,nondominant,nondominant
test2,test2_fo.csv,1,2020-01-01_12h00.00.000,FO_updated_new,2020.1.2,60,Win32,space,0.1798,0.0,nondominant,nondominant
test2,test2_fo.csv,1,2020-01-01_12h00.00.000,FO_updated_new,2020.1.2,60,Win32,space,0.1831,0.0,nondominant,nondominant
test2,test2_fo.csv,1,2020-01-01_12h00.00.000,FO_updated_new,2020.1.2,60,Win32,space,0.1634,0.0,nondominant,nondominant
test2,test2_fo.csv,1,2020-01-01_12h00.00.000,FO_updated_new,2020.1.2,60,Win32,space,0.1666,0.0,nondominant,nondominant
test2,test2_fo.csv,1,2020-01-01_12h00.00.000,FO_updated_new,2020.1.2,60,Win32,space,0.1693,0.0,nondominant,nondominant
test2,test2_fo.csv,1,2020-01-01_12h00.00.000,FO_updated_new,2020.1.2,60,Win32,space,0.1601,0.0,nondominant,nondominant
test2,test2_fo.csv,1,2020-01-01_12h00.00.000,FO_updated_new,2020.1.2,60,Win32,space,0.1743,0.0,nondominant,nondominant
test2,test2_fo.csv,1,2020-01-01_12h00.00.000,FO_updated_new,2020.1.2,60,Win32,space,0.1671,0.0,nondominant,nondominant
test2,test2_fo.csv,1,2020-01-01_12h00.00.000,FO_updated_new,2020.1.2,60,Win32,space,0.1708,0.0,nondominant,nondominant
test2,test2_fo.csv,1,2020-01-01_12h00.00.000,FO_updated_new,2020.1.2,60,Win32,space,0.1743,0.0,nondominant,nondominant
test2,test2_fo.csv,1,2020-01-01_12h00.00.000,FO_updated_new,2020.1.2,60,Win32,space,0.2031,0.0,nondominant,nondominant
test2,test2_fo.csv,1,2020-01-01_12h00.00.000,FO_updated_new,2020.1.2,60,Win32,space,0.1687,0.0,nondominant,nondominant
test2,test2_fo.csv,1,2020-01-01_12h00.00.000,FO_updated_new,2020.1.2,60,Win32,space,0.1632,0.0,nondominant,nondominant
test2,test2_fo.csv,1,2020-01-01_12h00.00.000,FO_updated_new,2020.1.2,60,Win32,space,0.2024,0.0,nondominant,nondominant
test2,test2_fo.csv,1,2020-01-01_12h00.00.000,FO_updated_new,2020.1.2,60,Win32,space,0.1808,0.0,nondominant,nondominant
test2,test2_fo.csv,1,2020-01-01_12h00.00.000,FO_updated_new,2020.1.2,60,Win32,space,0.2263,0.0,nondominant,nondominant
test2,test2_fo.csv,1,2020-01-01_12h00.00.000,FO_updated_new,2020.1.2,60,Win32,space,0.1881,0.0,nondominant,nondominant
test2,test2_fo.csv,1,2020-01-01_12h00.00.000,FO_updated_new,2020.1.2,60,Win32,space,0.202,0.0,nondominant,nondominant
test2,test2_fo.csv,1,2020-01-01_12h00.00.000,FO_updated_new,2020.1.2,60,Win32,space,0.1675,0.0,nondominant,nondominant
test2,test2_fo.csv,1,2020-01-01_12h00.00.000,FO_updated_new,2020.1.2,60,Win32,space,0.1832,0.0,nondominant,nondominant
test2,test2_fo.csv,1,2020-01-01_12h00.00.000,FO_updated_new,2020.1.2,60,Win32,space,0.2151,0.0,nondominant,nondominant
test2,test2_fo.csv,1,2020-01-01_12h00.00.000,FO_updated_new,2020.1.2,60,Win32,space,0.1886,0.0,nondominant,nondominant
test2,test2_fo.csv,1,2020-01-01_12h00.00.000,FO_updated_new,2020.1.2,60,Win32,space,0.1983,0.0,nondominant,nondominant
test2,test2_fo.csv,1,2020-01-01_12h00.00.000,FO_updated_new,2020.1.2,60,Win32,space,0.2063,0.0,nondominant,nondominant
test2,test2_fo.csv,1,2020-01-01_12h00.00.000,FO_updated_new,2020.1.2,60,Win32,space,0.1899,0.0,nondominant,nondominant
test2,test2_fo.csv,1,2020-01-01_12h00.00.000,FO_updated_new,2020.1.2,60,Win32,space,0.1961,0.0,nondominant,nondominant
test2,test2_fo.csv,1,2020-01-01_12h00.00.000,FO_updated_new,2020.1.2,60,Win32,space,0.2207,0.0,nondominant,nondominant
test2,test2_fo.csv,1,2020-01-01_12h00.00.000,FO_updated_new,2020.1.2,60,Win32,space,0.1868,0.0,nondominant,nondominant
test2,test2_fo.csv,1,2020-01-01_12h00.00.000,FO_updated_new,2020.1.2,60,Win32,space,0.2013,0.0,nondominant,nondominant
test2,test2_fo.csv,1,2020-01-01_12h00.00.000,FO_updated_new,2020.1.2,60,Win32,space,0.1977,0.0,nondominant,nondominant
test2,test2_fo.csv,1,2020-01-01_12h00.00.000,FO_updated_new,2020.1.2,60,Win32,space,0.213,0.0,nondominant,nondominant
test2,test2_fo.csv,1,2020-01-01_12h00.00.000,FO_updated_new,2020.1.2,60,Win32,space,0.217,0.0,nondominant,nondominant
test2,test2_fo.csv,1,2020-01-01_12h00.00.000,FO_updated_new,2020.1.2,60,Win32,space,0.221,0.0,nondominant,nondominant
test2,test2_fo.csv,1,2020-01-01_12h00.00.000,FO_updated_new,2020.1.2,60,Win32,space,0.1957,0.0,nondominant,nondominant
test2,test2_fo.csv,1,2020-01-01_12h00.00.000,FO_updated_new,2020.1.2,60,Win32,space,0.2033,0.0,nondominant,nondominant
test2,test2_fo.csv,1,2020-01-01_12h00.00.000,FO_updated_new,2020.1.2,60,Win32,space,0.2055,0.0,nondominant,nondominant
test2,test2_fo.csv,1,2020-01-01_12h00.00.000,FO_updated_new,2020.1.2,60,Win32,space,0.1996,0.0,nondominant,nondominant
test2,test2_fo.csv,1,2020-01-01_12h00.00.000,FO_updated_new,2020.1.2,60,Win32,space,0.2258,0.0,nondominant,nondominant
test2,test2_fo.csv,1,2020-01-01_12h00.00.000,FO_updated_new,2020.1.2,60,Win32,space,0.197,0.0,nondominant,nondominant
test2,test2_fo.csv,1,2020-01-01_12h00.00.000,FO_updated_new,2020.1.2,60,Win32,space,0.2147,0.0,nondominant,nondominant
test2,test2_fo.csv,1,2020-01-01_12h00.00.000,FO_updated_new,2020.1.2,60,Win32,space,0.2178,0.0,nondominant,nondominant
test2,test2_fo.csv,1,2020-01-01_12h00.00.000,FO_updated_new,2020.1.2,60,Win32,space,0.2026,0.0,nondominant,nondominant
test2,test2_fo.csv,1,2020-01-01_12h00.00.000,FO_updated_new,2020.1.2,60,Win32,space,0.2022,0.0,nondominant,nondominant
test2,test2_fo.csv,1,2020-01-01_12h00.00.000,FO_updated_new,2020.1.2,60,Win32,space,0.197,0.0,nondominant,nondominant
test2,test2_fo.csv,1,2020-01-01_12h00.00.000,FO_updated_new,2020.1.2,60,Win32,space,0.2091,0.0,nondominant,nondominant
test2,test2_fo.csv,1,2020-01-01_12h00.00.000,FO_updated_new,2020.1.2,60,Win32,space,0.2036,0.0,nondominant,nondominant
test2,test2_fo.csv,1,2020-01-01_12h00.00.000,FO_updated_new,2020.1.2,60,Win32,space,0.2218,0.0,nondominant,nondominant
test2,test2_fo.csv,1,2020-01-01_12h00.00.000,FO_updated_new,2020.1.2,60,Win32,space,0.1938,0.0,nondominant,nondominant
test2,test2_fo.csv,1,2020-01-01_12h00.00.000,FO_updated_new,2020.1.2,60,Win32,space,0.2086,0.0,nondominant,nondominant
test2,test2_fo.csv,1,2020-01-01_12h00.00.000,FO_updated_new,2020.1.2,60,Win32,space,0.2124,0.0,nondominant,nondominant
test2,test2_fo.csv,1,2020-01-01_12h00.00.000,FO_updated_new,2020.1.2,60,Win32,space,0.1893,0.0,nondominant,nondominant
test2,test2_fo.csv,1,2020-01-01_12h00.00.000,FO_updated_new,2020.1.2,60,Win32,space,0.2032,0.0,nondominant,nondominant
test2,test2_fo.csv,1,2020-01-01_12h00.00.000,FO_updated_new,2020.1.2,60,Win32,space,0.1856,0.0,nondominant,nondominant
test2,test2_fo.csv,1,2020-01-01_12h00.00.000,FO_updated_new,2020.1.2,60,Win32,space,0.2217,0.0,nondominant,nondominant
test2,test2_fo.csv,1,2020-01-01_12h00.00.000,FO_updated_new,2020.1.2,60,Win32,space,0.2303,0.0,nondominant,nondominant
test2,test2_fo.csv,1,2020-01-01_12h00.00.000,FO_updated_new,2020.1.2,60,Win32,space,0.2058,0.0,nondominant,nondominant
test2,test2_fo.csv,1,2020-01-01_12h00.00.000,FO_updated_new,2020.1.2,60,Win32,space,0.2167,0.0,nondominant,nondominant
test2,test2_fo.csv,1,2020-01-01_12h00.00.000,FO_updated_new,2020.1.2,60,Win32,space,0.2575,0.0,nondominant,nondominant
test2,test2_fo.csv,1,2020-01-01_12h00.00.000,FO_updated_new,2020.1.2,60,Win32,space,0.1888,0.0,nondominant,nondominant
test2,test2_fo.csv,1,2020-01-01_12h00.00.000,FO_updated_new,2020.1.2,60,Win32,space,0.204,0.0,nondominant,nondominant
test2,test2_fo.csv,1,2020-01-01_12h00.00.000,FO_updated_new,2020.1.2,60,Win32,space,0.2071,0.0,nondominant,nondominant
test2,test2_fo.csv,1,2020-01-01_12h00.00.000,FO_updated_new,2020.1.2,60,Win32,space,0.1747,0.0,nondominant,nondominant
test2,test2_fo.csv,1,2020-01-01_12h00.00.000,FO_updated_new,2020.1.2,60,Win32,space,0.1901,0.0,nondominant,nondominant
test2,test2_fo.csv,1,2020-01-01_12h00.00.000,FO_updated_new,2020.1.2,60,Win32,space,0.1874,0.0,nondominant,nondominant
test2,test2_fo.csv,1,2020-01-01_12h00.00.000,FO_updated_new,2020.1.2,60,Win32,space,0.1978,0.0,nondominant,nondominant
test2,test2_fo.csv,1,2020-01-01_12h00.00.000,FO_updated_new,2020.1.2,60,Win32,space,0.2073,0.0,nondominant,nondominant
test2,test2_fo.csv,1,2020-01-01_12h00.00.000,FO_updated_new,2020.1.2,60,Win32,space,0.1939,0.0,nondominant,nondominant
test2,test2_fo.csv,1,2020-01-01_12h00.00.000,FO_updated_new,2020.1.2,60,Win32,space,0.2179,0.0,nondominant,nondominant
test2,test2_fo.csv,1,2020-01-01_12h00.00.000,FO_updated_new,2020.1.2,60,Win32,space,0.2404,0.0,nondominant,nondominant
test2,test2_fo.csv,1,2020-01-01_12h00.00.000,FO_updated_new,2020.1.2,60,Win32,space,0.2293,0.0,nondominant,nondominant
test2,test2_fo.csv,1,2020-01-01_12h00.00.000,FO_updated_new,2020.1.2,60,Win32,space,0.1941,0.0,nondominant,nondominant
test2,test2_fo.csv,1,2020-01-01_12h00.00.000,FO_updated_new,2020.1.2,60,Win32,space,0.2079,0.0,nondominant,nondominant
test2,test2_fo.csv,1,2020-01-01_12h00.00.000,FO_updated_new,2020.1.2,60,Win32,space,0.206,0.0,nondominant,nondominant
test2,test2_fo.csv,1,2020-01-01_12h00.00.000,FO_updated_new,2020.1.2,60,Win32,space,0.2018,0.0,nondominant,nondominant
test2,test2_fo.csv,1,2020-01-01_12h00.00.000,FO_updated_new,2020.1.2,60,Win32,space,0.2099,0.0,nondominant,nondominant
test2,test2_fo.csv,1,2020-01-01_12h00.00.000,FO_updated_new,2020.1.2,60,Win32,space,0.2068,0.0,nondominant,nondominant
test2,test2_fo.csv,1,2020-01-01_12h00.00.000,FO_updated_new,2020.1.2,60,Win32,space,0.204,0.0,nondominant,nondominant
test2,test2_fo.csv,1,2020-01-01_12h00.00.000,FO_updated_new,2020.1.2,60,Win32,space,0.23,0.0,nondominant,nondominant
test2,test2_fo.csv,1,2020-01-01_12h00.00.000,FO_updated_new,2020.1.2,60,Win32,space,0.2307,0.0,nondominant,nondominant
test2,test2_fo.csv,1,2020-01-01_12h00.00.000,FO_updated_new,2020.1.2,60,Win32,space,0.2114,0.0,nondominant,nondominant
test2,test2_fo.csv,1,2020-01-01_12h00.00.000,FO_updated_new,2020.1.2,60,Win32,space,0.2107,0.0,nondominant,nondominant
test2,test2_fo.csv,1,2020-01-01_12h00.00.000,FO_updated_new,2020.1.2,60,Win32,space,0.2132,0.0,nondominant,nondominant
test2,test2_fo.csv,1,2020-01-01_12h00.00.000,FO_updated_new,2020.1.2,60,Win32,space,0.2624,0.0,nondominant,nondominant
test2,test2_fo.csv,1,2020-01-01_12h00.00.000,FO_updated_new,2020.1.2,60,Win32,space,0.2109,0.0,nondominant,nondominant
test2,test2_fo.csv,1,2020-01-01_12h00.00.000,FO_updated_new,2020.1.2,60,Win32,space,0.218,0.0,nondominant,nondominant
test2,test2_fo.csv,1,2020-01-01_12h00.00.000,FO_updated_new,2020.1.2,60,Win32,space,0.1826,0.0,nondominant,nondominant
test2,test2_fo.csv,1,2020-01-01_12h00.00.000,FO_updated_new,2020.1.2,60,Win32,space,0.2076,0.0,nondominant,nondominant
test2,test2_fo.csv,1,2020-01-01_12h00.00.000,FO_updated_new,2020.1.2,60,Win32,space,0.1906,0.0,nondominant,nondominant
test2,test2_fo.csv,1,2020-01-01_12h00.00.000,FO_updated_new,2020.1.2,60,Win32,space,0.1867,0.0,nondominant,nondominant
test2,test2_fo.csv,1,2020-01-01_12h00.00.000,FO_updated_new,2020.1.2,60,Win32,space,0.1924,0.0,nondominant,nondominant
test2,test2_fo.csv,1,2020-01-01_12h00.00.000,FO_updated_new,2020.1.2,60,Win32,space,0.2138,0.0,nondominant,nondominant
test2,test2_fo.csv,1,2020-01-01_12h00.00.000,FO_updated_new,2020.1.2,60,Win32,space,0.2052,0.0,nondominant,nondominant
test2,test2_fo.csv,1,2020-01-01_12h00.00.000,FO_updated_new,2020.1.2,60,Win32,space,0.2123,0.0,nondominant,nondominant
test2,test2_fo.csv,1,2020-01-01_12h00.00.000,FO_updated_new,2020.1.2,60,Win32,space,0.2186,0.0,nondominant,nondominant
test2,test2_fo.csv,1,2020-01-01_12h00.00.000,FO_updated_new,2020.1.2,60,Win32,space,0.2083,0.0,nondominant,nondominant
test2,test2_fo.csv,1,2020-01-01_12h00.00.000,FO_updated_new,2020.1.2,60,Win32,space,0.203,0.0,nondominant,nondominant
test2,test2_fo.csv,1,2020-01-01_12h00.00.000,FO_updated_new,2020.1.2,60,Win32,space,0.278,0.0,nondominant,nondominant
test2,test2_fo.csv,1,2020-01-01_12h00.00.000,FO_updated_new,2020.1.2,60,Win32,space,0.2508,0.0,nondominant,nondominant
test2,test2_fo.csv,1,2020-01-01_12h00.00.000,FO_updated_new,2020.1.2,60,Win32,space,0.22,0.0,nondominant,nondominant
test2,test2_fo.csv,1,2020-01-01_12h00.00.000,FO_updated_new,2020.1.2,60,Win32,space,0.2157,0.0,nondominant,nondominant
test2,test2_fo.csv,1,2020-01-01_12h00.00.000,FO_updated_new,2020.1.2,60,Win32,space,0.1969,0.0,nondominant,nondominant
test2,test2_fo.csv,1,2020-01-01_12h00.00.000,FO_updated_new,2020.1.2,60,Win32,space,0.199,0.0,nondominant,nondominant
test2,test2_fo.csv,1,2020-01-01_12h00.00.000,FO_updated_new,2020.1.2,60,Win32,space,0.1893,0.0,nondominant,nondominant
test2,test2_fo.csv,1,2020-01-01_12h00.00.000,FO_updated_new,2020.1.2,60,Win32,space,0.1913,0.0,nondominant,nondominant
test2,test2_fo.csv,1,2020-01-01_12h00.00.000,FO_updated_new,2020.1.2,60,Win32,space,0.2032,0.0,nondominant,nondominant
test2,test2_fo.csv,1,2020-01-01_12h00.00.000,FO_updated_new,2020.1.2,60,Win32,space,0.2075,0.0,nondominant,nondominant
test2,test2_fo.csv,1,2020-01-01_12h00.00.000,FO_updated_new,2020.1.2,60,Win32,space,0.1875,0.0,nondominant,nondominant
test2,test2_fo.csv,1,2020-01-01_12h00.00.000,FO_updated_new,2020.1.2,60,Win32,space,0.2066,0.0,nondominant,nondominant
test2,test2_fo.csv,1,2020-01-01_12h00.00.000,FO_updated_new,2020.1.2,60,Win32,space,0.219,0.0,nondominant,nondominant
test2,test2_fo.csv,1,2020-01-01_12h00.00.000,FO_updated_new,2020.1.2,60,Win32,space,0.1929,0.0,nondominant,nondominant
test2,test2_fo.csv,1,2020-01-01_12h00.00.000,FO_updated_new,2020.1.2,60,Win32,space,0.1958,0.0,nondominant,nondominant
test3,test3_fo.csv,1,2020-01-01_12h00.00.000,FO_updated_new,2020.1.2,60,Win32,space,0.5435,0.0,dominant,dominant
test3,test3_fo.csv,1,2020-01-01_12h00.00.000,FO_updated_new,2020.1.2,60,Win32,space,0.0811,0.0,dominant,dominant
test3,test3_fo.csv,1,2020-01-01_12h00.00.000,FO_updated_new,2020.1.2,60,Win32,space,0.0959,0.0,dominant,dominant
test3,test3_fo.csv,1,2020-01-01_12h00.00.000,FO_updated_new,2020.1.2,60,Win32,space,0.0842,0.0,dominant,dominant
test3,test3_fo.csv,1,2020-01-01_12h00.00.000,FO_updated_new,2020.1.2,60,Win32,space,0.0962,0.0,dominant,dominant
test3,test3_fo.csv,1,2020-01-01_12h00.00.000,FO_updated_new,2020.1.2,60,Win32,space,0.0927,0.0,dominant,dominant
test3,test3_fo.csv,1,2020-01-01_12h00.00.000,FO_updated_new,2020.1.2,60,Win32,space,0.0773,0.0,dominant,dominant
test3,test3_fo.csv,1,2020-01-01_12h00.00.000,FO_updated_new,2020.1.2,60,Win32,space,0.1074,0.0,dominant,dominant
test3,test3_fo.csv,1,2020-01-01_12h00.00.000,FO_updated_new,2020.1.2,60,Win32,space,0.0826,0.0,dominant,dominant
test3,test3_fo.csv,1,2020-01-01_12h00.00.000,FO_updated_new,2020.1.2,60,Win32,space,0.108,0.0,dominant,dominant
test3,test3_fo.csv,1,2020-01-01_12h00.00.000,FO_updated_new,2020.1.2,60,Win32,space,0.07,0.0,dominant,dominant
test3,test3_fo.csv,1,2020-01-01_12h00.00.000,FO_updated_new,2020.1.2,60,Win32,space,0.1066,0.0,dominant,dominant
test3,test3_fo.csv,1,2020-01-01_12h00.00.000,FO_updated_new,2020.1.2,60,Win32,space,0.1105,0.0,dominant,dominant
test3,test3_fo.csv,1,2020-01-01_12h00.00.000,FO_updated_new,2020.1.2,60,Win32,space,0.0963,0.0,dominant,dominant
test3,test3_fo.csv,1,2020-01-01_12h00.00.000,FO_updated_new,2020.1.2,60,Win32,space,0.2555,0.0,dominant,dominant
test3,test3_fo.csv,1,2020-01-01_12h00.00.000,FO_updated_new,2020.1.2,60,Win32,space,0.0908,0.0,dominant,dominant
test3,test3_fo.csv,1,2020-01-01_12h00.00.000,FO_updated_new,2020.1.2,60,Win32,space,0.1121,0.0,dominant,dominant
test3,test3_fo.csv,1,2020-01-01_12h00.00.000,FO_updated_new,2020.1.2,60,Win32,space,0.1084,0.0,dominant,dominant
test3,test3_fo.csv,1,2020-01-01_12h00.00.000,FO_updated_new,2020.1.2,60,Win32,space,0.0921,0.0,dominant,dominant
test3,test3_fo.csv,1,2020-01-01_12h00.00.000,FO_updated_new,2020.1.2,60,Win32,space,0.0883,0.0,dominant,dominant
test3,test3_fo.csv,1,2020-01-01_12h00.00.000,FO_updated_new,2020.1.2,60,Win32,space,0.1203,0.0,dominant,dominant
test3,test3_fo.csv,1,2020-01-01_12h00.00.000,FO_updated_new,2020.1.2,60,Win32,space,0.1049,0.0,dominant,dominant
test3,test3_fo.csv,1,2020-01-01_12h00.00.000,FO_updated_new,2020.1.2,60,Win32,space,0.1203,0.0,dominant,dominant
test3,test3_fo.csv,1,2020-01-01_12h00.00.000,FO_updated_new,2020.1.2,60,Win32,space,0.1007,0.0,dominant,dominant
test3,test3_fo.csv,1,2020-01-01_12h00.00.000,FO_updated_new,2020.1.2,60,Win32,space,0.1126,0.0,dominant,dominant
test3,test3_fo.csv,1,2020-01-01_12h00.00.000,FO_updated_new,2020.1.2,60,Win32,space,0.1044,0.0,dominant,dominant
test3,test3_fo.csv,1,2020-01-01_12h00.00.000,FO_updated_new,2020.1.2,60,Win32,space,0.0966,0.0,dominant,dominant
test3,test3_fo.csv,1,2020-01-01_12h00.00.000,FO_updated_new,2020.1.2,60,Win32,space,0.1221,0.0,dominant,dominant
test3,test3_fo.csv,1,2020-01-01_12h00.00.000,FO_updated_new,2020.1.2,60,Win32,space,0.1377,0.0,dominant,dominant
test3,test3_fo.csv,1,2020-01-01_12h00.00.000,FO_updated_new,2020.1.2,60,Win32,space,0.1091,0.0,dominant,dominant
test3,test3_fo.csv,1,2020-01-01_12h00.00.000,FO_updated_new,2020.1.2,60,Win32,space,0.1067,0.0,dominant,dominant
test3,test3_fo.csv,1,2020-01-01_12h00.00.000,FO_updated_new,2020.1.2,60,Win32,space,0.1048,0.0,dominant,dominant
test3,test3_fo.csv,1,2020-01-01_12h00.00.000,FO_updated_new,2020.1.2,60,Win32,space,0.1539,0.0,dominant,dominant
test3,test3_fo.csv,1,2020-01-01_12h00.00.000,FO_updated_new,2020.1.2,60,Win32,space,0.0979,0.0,dominant,dominant
test3,test3_fo.csv,1,2020-01-01_12h00.00.000,FO_updated_new,2020.1.2,60,Win32,space,0.0922,0.0,dominant,dominant
test3,test3_fo.csv,1,2020-01-01_12h00.00.000,FO_updated_new,2020.1.2,60,Win32,space,0.1107,0.0,dominant,dominant
test3,test3_fo.csv,1,2020-01-01_12h00.00.000,FO_updated_new,2020.1.2,60,Win32,space,0.1056,0.0,dominant,dominant
test3,test3_fo.csv,1,2020-01-01_12h00.00.000,FO_updated_new,2020.1.2,60,Win32,space,0.1042,0.0,dominant,dominant
test3,test3_fo.csv,1,2020-01-01_12h00.00.000,FO_updated_new,2020.1.2,60,Win32,space,0.1387,0.0,dominant,dominant
test3,test3_fo.csv,1,2020-01-01_12h00.00.000,FO_updated_new,2020.1.2,60,Win32,space,0.1057,0.0,dominant,dominant
test3,test3_fo.csv,1,2020-01-01_12h00.00.000,FO_updated_new,2020.1.2,60,Win32,space,0.0919,0.0,dominant,dominant
test3,test3_fo.csv,1,2020-01-01_12h00.00.000,FO_updated_new,2020.1.2,60,Win32,space,0.0899,0.0,dominant,dominant
test3,test3_fo.csv,1,2020-01-01_12h00.00.000,FO_updated_new,2020.1.2,60,Win32,space,0.0992,0.0,dominant,dominant
test3,test3_fo.csv,1,2020-01-01_12h00.00.000,FO_updated_new,2020.1.2,60,Win32,space,0.1119,0.0,dominant,dominant
test3,test3_fo.csv,1,2020-01-01_12h00.00.000,FO_updated_new,2020.1.2,60,Win32,space,0.2263,0.0,dominant,dominant
test3,test3_fo.csv,1,2020-01-01_12h00.00.000,FO_updated_new,2020.1.2,60,Win32,space,0.2323,0.0,dominant,dominant
test3,test3_fo.csv,1,2020-01-01_12h00.00.000,FO_updated_new,2020.1.2,60,Win32,space,0.1435,0.0,dominant,dominant
test3,test3_fo.csv,1,2020-01-01_12h00.00.000,FO_updated_new,2020.1.2,60,Win32,space,0.0738,0.0,dominant,dominant
test3,test3_fo.csv,1,2020-01-01_12h00.00.000,FO_updated_new,2020.1.2,60,Win32,space,0.1142,0.0,dominant,dominant
test3,test3_fo.csv,1,2020-01-01_12h00.00.000,FO_updated_new,2020.1.2,60,Win32,space,0.2197,0.0,dominant,dominant
test3,test3_fo.csv,1,2020-01-01_12h00.00.000,FO_updated_new,2020.1.2,60,Win32,space,0.1373,0.0,dominant,dominant
test3,test3_fo.csv,1,2020-01-01_12h00.00.000,FO_updated_new,2020.1.2,60,Win32,space,0.2386,0.0,dominant,dominant
test3,test3_fo.csv,1,2020-01-01_12h00.00.000,FO_updated_new,2020.1.2,60,Win32,space,0.1212,0.0,dominant,dominant
test3,test3_fo.csv,1,2020-01-01_12h00.00.000,FO_updated_new,2020.1.2,60,Win32,space,0.0934,0.0,dominant,dominant
test3,test3_fo.csv,1,2020-01-01_12h00.00.000,FO_updated_new,2020.1.2,60,Win32,space,0.1234,0.0,dominant,dominant
test3,test3_fo.csv,1,2020-01-01_12h00.00.000,FO_updated_new,2020.1.2,60,Win32,space,0.099,0.0,dominant,dominant
test3,test3_fo.csv,1,2020-01-01_12h00.00.000,FO_updated_new,2020.1.2,60,Win32,space,0.119,0.0,dominant,dominant
test3,test3_fo.csv,1,2020-01-01_12h00.00.000,FO_updated_new,2020.1.2,60,Win32,space,0.1407,0.0,dominant,dominant
test3,test3_fo.csv,1,2020-01-01_12h00.00.000,FO_updated_new,2020.1.2,60,Win32,space,0.1057,0.0,dominant,dominant
test3,test3_fo.csv,1,2020-01-01_12h00.00.000,FO_updated_new,2020.1.2,60,Win32,space,0.0919,0.0,dominant,dominant
test3,test3_fo.csv,1,2020-01-01_12h00.00.000,FO_updated_new,2020.1.2,60,Win32,space,0.1051,0.0,dominant,dominant
test3,test3_fo.csv,1,2020-01-01_12h00.00.000,FO_updated_new,2020.1.2,60,Win32,space,0.1124,0.0,dominant,dominant
test3,test3_fo.csv,1,2020-01-01_12h00.00.000,FO_updated_new,2020.1.2,60,Win32,space,0.1138,0.0,dominant,dominant
test3,test3_fo.csv,1,2020-01-01_12h00.00.000,FO_updated_new,2020.1.2,60,Win32,space,0.1223,0.0,dominant,dominant
test3,test3_fo.csv,1,2020-01-01_12h00.00.000,FO_updated_new,2020.1.2,60,Win32,space,0.0911,0.0,dominant,dominant
test3,test3_fo.csv,1,2020-01-01_12h00.00.000,FO_updated_new,2020.1.2,60,Win32,space,0.1061,0.0,dominant,dominant
test3,test3_fo.csv,1,2020-01-01_12h00.00.000,FO_updated_new,2020.1.2,60,Win32,space,0.1291,0.0,dominant,dominant
test3,test3_fo.csv,1,2020-01-01_12h00.00.000,FO_updated_new,2020.1.2,60,Win32,space,0.1048,0.0,dominant,dominant
test3,test3_fo.csv,1,2020-01-01_12h00.00.000,FO_updated_new,2020.1.2,60,Win32,space,0.1058,0.0,dominant,dominant
test3,test3_fo.csv,1,2020-01-01_12h00.00.000,FO_updated_new,2020.1.2,60,Win32,space,0.1197,0.0,dominant,dominant
test3,test3_fo.csv,1,2020-01-01_12h00.00.000,FO_updated_new,2020.1.2,60,Win32,space,0.1321,0.0,dominant,dominant
test3,test3_fo.csv,1,2020-01-01_12h00.00.000,FO_updated_new,2020.1.2,60,Win32,space,0.1298,0.0,dominant,dominant
test3,test3_fo.csv,1,2020-01-01_12h00.00.000,FO_updated_new,2020.1.2,60,Win32,space,0.1222,0.0,dominant,dominant
test3,test3_fo.csv,1,2020-01-01_12h00.00.000,FO_updated_new,2020.1.2,60,Win32,space,0.1227,0.0,dominant,dominant
test3,test3_fo.csv,1,2020-01-01_12h00.00.000,FO_updated_new,2020.1.2,60,Win32,space,0.129,0.0,dominant,dominant
test3,test3_fo.csv,1,2020-01-01_12h00.00.000,FO_updated_new,2020.1.2,60,Win32,space,0.1379,0.0,dominant,dominant
test3,test3_fo.csv,1,2020-01-01_12h00.00.000,FO_updated_new,2020.1.2,60,Win32,space,0.0594,0.0,dominant,dominant
test3,test3_fo.csv,1,2020-01-01_12h00.00.000,FO_updated_new,2020.1.2,60,Win32,space,0.1266,0.0,dominant,dominant
test3,test3_fo.csv,1,2020-01-01_12h00.00.000,FO_updated_new,2020.1.2,60,Win32,space,0.1247,0.0,dominant,dominant
test3,test3_fo.csv,1,2020-01-01_12h00.00.000,FO_updated_new,2020.1.2,60,Win32,space,0.1281,0.0,dominant,dominant
test3,test3_fo.csv,1,2020-01-01_12h00.00.000,FO_updated_new,2020.1.2,60,Win32,space,0.0548,0.0,dominant,dominant
test3,test3_fo.csv,1,2020-01-01_12h00.00.000,FO_updated_new,2020.1.2,60,Win32,space,0.1265,0.0,dominant,dominant
test3,test3_fo.csv,1,2020-01-01_12h00.00.000,FO_updated_new,2020.1.2,60,Win32,space,0.1105,0.0,dominant,dominant
test3,test3_fo.csv,1,2020-01-01_12h00.00.000,FO_updated_new,2020.1.2,60,Win32,space,0.1322,0.0,dominant,dominant
test3,test3_fo.csv,1,2020-01-01_12h00.00.000,FO_updated_new,2020.1.2,60,Win32,space,0.1031,0.0,dominant,dominant
test3,test3_fo.csv,1,2020-01-01_12h00.00.000,FO_updated_new,2020.1.2,60,Win32,space,0.1553,0.0,dominant,dominant
test3,test3_fo.csv,1,2020-01-01_12h00.00.000,FO_updated_new,2020.1.2,60,Win32,space,0.0958,0.0,dominant,dominant
test3,test3_fo.csv,1,2020-01-01_12h00.00.000,FO_updated_new,2020.1.2,60,Win32,space,0.1073,0.0,dominant,dominant
test3,test3_fo.csv,1,2020-01-01_12h00.00.000,FO_updated_new,2020.1.2,60,Win32,space,0.1219,0.0,dominant,dominant
test3,test3_fo.csv,1,2020-01-01_12h00.00.000,FO_updated_new,2020.1.2,60,Win32,space,0.0908,0.0,dominant,dominant
test3,test3_fo.csv,1,2020-01-01_12h00.00.000,FO_updated_new,2020.1.2,60,Win32,space,0.1226,0.0,dominant,dominant
test3,test3_fo.csv,1,2020-01-01_12h00.00.000,FO_updated_new,2020.1.2,60,Win32,space,0.105,0.0,dominant,dominant
test3,test3_fo.csv,1,2020-01-01_12h00.00.000,FO_updated_new,2020.1.2,60,Win32,space,0.1201,0.0,dominant,dominant
test3,test3_fo.csv,1,2020-01-01_12h00.00.000,FO_updated_new,2020.1.2,60,Win32,space,0.1412,0.0,dominant,dominant
test3,test3_fo.csv,1,2020-01-01_12h00.00.000,FO_updated_new,2020.1.2,60,Win32,space,0.1383,0.0,dominant,dominant
test3,test3_fo.csv,1,2020-01-01_12h00.00.000,FO_updated_new,2020.1.2,60,Win32,space,0.1029,0.0,dominant,dominant
test3,test3_fo.csv,1,2020-01-01_12h00.00.000,FO_updated_new,2020.1.2,60,Win32,space,0.1394,0.0,dominant,dominant
test3,test3_fo.csv,1,2020-01-01_12h00.00.000,FO_updated_new,2020.1.2,60,Win32,space,0.131,0.0,dominant,dominant
test3,test3_fo.csv,1,2020-01-01_12h00.00.000,FO_updated_new,2020.1.2,60,Win32,space,0.1264,0.0,dominant,dominant
test3,test3_fo.csv,1,2020-01-01_12h00.00.000,FO_updated_new,2020.1.2,60,Win32,space,0.1317,0.0,dominant,dominant
test3,test3_fo.csv,1,2020-01-01_12h00.00.000,FO_updated_new,2020.1.2,60,Win32,space,0.1185,0.0,dominant,dominant
test3,test3_fo.csv,1,2020-01-01_12h00.00.000,FO_updated_new,2020.1.2,60,Win32,space,0.1217,0.0,dominant,dominant
test3,test3_fo.csv,1,2020-01-01_12h00.00.000,FO_updated_new,2020.1.2,60,Win32,space,0.1293,0.0,dominant,dominant
test3,test3_fo.csv,1,2020-01-01_12h00.00.000,FO_updated_new,2020.1.2,60,Win32,space,0.1232,0.0,dominant,dominant
test3,test3_fo.csv,1,2020-01-01_12h00.00.000,FO_updated_new,2020.1.2,60,Win32,space,0.122,0.0,dominant,dominant
test3,test3_fo.csv,1,2020-01-01_12h00.00.000,FO_updated_new,2020.1.2,60,Win32,space,0.1331,0.0,dominant,dominant
test3,test3_fo.csv,1,2020-01-01_12h00.00.000,FO_updated_new,2020.1.2,60,Win32,space,0.1169,0.0,dominant,dominant
test3,test3_fo.csv,1,2020-01-01_12h00.00.000,FO_updated_new,2020.1.2,60,Win32,space,0.1381,0.0,dominant,dominant
test3,test3_fo.csv,1,2020-01-01_12h00.00.000,FO_updated_new,2020.1.2,60,Win32,space,0.1047,0.0,dominant,dominant
test3,test3_fo.csv,1,2020-01-01_12h00.00.000,FO_updated_new,2020.1.2,60,Win32,space,0.1227,0.0,dominant,dominant
test3,test3_fo.csv,1,2020-01-01_12h00.00.000,FO_updated_new,2020.1.2,60,Win32,space,0.1239,0.0,dominant,dominant
test3,test3_fo.csv,1,2020-01-01_12h00.00.000,FO_updated_new,2020.1.2,60,Win32,space,0.1164,0.0,dominant,dominant
test3,test3_fo.csv,1,2020-01-01_12h00.00.000,FO_updated_new,2020.1.2,60,Win32,space,0.1295,0.0,dominant,dominant
test3,test3_fo.csv,1,2020-01-01_12h00.00.000,FO_updated_new,2020.1.2,60,Win32,space,0.1264,0.0,dominant,dominant
test3,test3_fo.csv,1,2020-01-01_12h00.00.000,FO_updated_new,2020.1.2,60,Win32,space,0.1183,0.0,dominant,dominant
test3,test3_fo.csv,1,2020-01-01_12h00.00.000,FO_updated_new,2020.1.2,60,Win32,space,0.149,0.0,dominant,dominant
test3,test3_fo.csv,1,2020-01-01_12h00.00.000,FO_updated_new,2020.1.2,60,Win32,space,0.158,0.0,dominant,dominant
test3,test3_fo.csv,1,2020-01-01_12h00.00.000,FO_updated_new,2020.1.2,60,Win32,space,0.092,0.0,dominant,dominant
test3,test3_fo.csv,1,2020-01-01_12h00.00.000,FO_updated_new,2020.1.2,60,Win32,space,0.1039,0.0,dominant,dominant
test3,test3_fo.csv,1,2020-01-01_12h00.00.000,FO_updated_new,2020.1.2,60,Win32,space,0.1242,0.0,dominant,dominant
test3,test3_fo.csv,1,2020-01-01_12h00.00.000,FO_updated_new,2020.1.2,60,Win32,space,0.1389,0.0,dominant,dominant
test3,test3_fo.csv,1,2020-01-01_12h00.00.000,FO_updated_new,2020.1.2,60,Win32,space,0.1386,0.0,dominant,dominant
test3,test3_fo.csv,1,2020-01-01_12h00.00.000,FO_updated_new,2020.1.2,60,Win32,space,0.1281,0.0,dominant,dominant
test3,test3_fo.csv,1,2020-01-01_12h00.00.000,FO_updated_new,2020.1.2,60,Win32,space,0.1044,0.0,dominant,dominant
test3,test3_fo.csv,1,2020-01-01_12h00.00.000,FO_updated_new,2020.1.2,60,Win32,space,0.1319,0.0,dominant,dominant
test3,test3_fo.csv,1,2020-01-01_12h00.00.000,FO_updated_new,2020.1.2,60,Win32,space,0.1258,0.0,dominant,dominant
test3,test3_fo.csv,1,2020-01-01_12h00.00.000,FO_updated_new,2020.1.2,60,Win32,space,0.1259,0.0,dominant,dominant
test3,test3_fo.csv,1,2020-01-01_12h00.00.000,FO_updated_new,2020.1.2,60,Win32,space,0.1254,0.0,dominant,dominant
test3,test3_fo.csv,1,2020-01-01_12h00.00.000,FO_updated_new,2020.1.2,60,Win32,space,0.1184,0.0,dominant,dominant
test3,test3_fo.csv,1,2020-01-01_12h00.00.000,FO_updated_new,2020.1.2,60,Win32,space,0.2816,0.0,dominant,dominant
test3,test3_fo.csv,1,2020-01-01_12h00.00.000,FO_updated_new,2020.1.2,60,Win32,space,0.118,0.0,dominant,dominant
test3,test3_fo.csv,1,2020-01-01_12h00.00.000,FO_updated_new,2020.1.2,60,Win32,space,0.124,0.0,dominant,dominant
test3,test3_fo.csv,1,2020-01-01_12h00.00.000,FO_updated_new,2020.1.2,60,Win32,space,0.1148,0.0,dominant,dominant
test3,test3_fo.csv,1,2020-01-01_12h00.00.000,FO_updated_new,2020.1.2,60,Win32,space,0.1308,0.0,dominant,dominant
test3,test3_fo.csv,1,2020-01-01_12h00.00.000,FO_updated_new,2020.1.2,60,Win32,space,0.1314,0.0,dominant,dominant
test3,test3_fo.csv,1,2020-01-01_12h00.00.000,FO_updated_new,2020.1.2,60,Win32,space,0.1265,0.0,dominant,dominant
test3,test3_fo.csv,1,2020-01-01_12h00.00.000,FO_updated_new,2020.1.2,60,Win32,space,0.1377,0.0,dominant,dominant
test3,test3_fo.csv,1,2020-01-01_12h00.00.000,FO_updated_new,2020.1.2,60,Win32,space,0.1208,0.0,dominant,dominant
test3,test3_fo.csv,1,2020-01-01_12h00.00.000,FO_updated_new,2020.1.2,60,Win32,space,0.2319,0.0,dominant,dominant
test3,test3_fo.csv,1,2020-01-01_12h00.00.000,FO_updated_new,2020.1.2,60,Win32,space,0.1426,0.0,dominant,dominant
test3,test3_fo.csv,1,2020-01-01_12h00.00.000,FO_updated_new,2020.1.2,60,Win32,space,0.1554,0.0,dominant,dominant
test3,test3_fo.csv,1,2020-01-01_12h00.00.000,FO_updated_new,2020.1.2,60,Win32,space,0.1075,0.0,dominant,dominant
test3,test3_fo.csv,1,2020-01-01_12h00.00.000,FO_updated_new,2020.1.2,60,Win32,space,0.1368,0.0,dominant,dominant
test3,test3_fo.csv,1,2020-01-01_12h00.00.000,FO_updated_new,2020.1.2,60,Win32,space,0.1353,0.0,dominant,dominant
test3,test3_fo.csv,1,2020-01-01_12h00.00.000,FO_updated_new,2020.1.2,60,Win32,space,0.1223,0.0,nondominant,nondominant
test3,test3_fo.csv,1,2020-01-01_12h00.00.000,FO_updated_new,2020.1.2,60,Win32,space,0.2761,0.0,nondominant,nondominant
test3,test3_fo.csv,1,2020-01-01_12h00.00.000,FO_updated_new,2020.1.2,60,Win32,space,0.1424,0.0,nondominant,nondominant
test3,test3_fo.csv,1,2020-01-01_12h00.00.000,FO_updated_new,2020.1.2,60,Win32,space,0.1213,0.0,nondominant,nondominant
test3,test3_fo.csv,1,2020-01-01_12h00.00.000,FO_updated_new,2020.1.2,60,Win32,space,0.1221,0.0,nondominant,nondominant
test3,test3_fo.csv,1,2020-01-01_12h00.00.000,FO_updated_new,2020.1.2,60,Win32,space,0.1391,0.0,nondominant,nondominant
test3,test3_fo.csv,1,2020-01-01_12h00.00.000,FO_updated_new,2020.1.2,60,Win32,space,0.1375,0.0,nondominant,nondominant
test3,test3_fo.csv,1,2020-01-01_12h00.00.000,FO_updated_new,2020.1.2,60,Win32,space,0.1372,0.0,nondominant,nondominant
test3,test3_fo.csv,1,2020-01-01_12h00.00.000,FO_updated_new,2020.1.2,60,Win32,space,0.1193,0.0,nondominant,nondominant
test3,test3_fo.csv,1,2020-01-01_12h00.00.000,FO_updated_new,2020.1.2,60,Win32,space,0.121,0.0,nondominant,nondominant
test3,test3_fo.csv,1,2020-01-01_12h00.00.000,FO_updated_new,2020.1.2,60,Win32,space,0.1352,0.0,nondominant,nondominant
test3,test3_fo.csv,1,2020-01-01_12h00.00.000,FO_updated_new,2020.1.2,60,Win32,space,0.1313,0.0,nondominant,nondominant
test3,test3_fo.csv,1,2020-01-01_12h00.00.000,FO_updated_new,2020.1.2,60,Win32,space,0.1426,0.0,nondominant,nondominant
test3,test3_fo.csv,1,2020-01-01_12h00.00.000,FO_updated_new,2020.1.2,60,Win32,space,0.1177,0.0,nondominant,nondominant
test3,test3_fo.csv,1,2020-01-01_12h00.00.000,FO_updated_new,2020.1.2,60,Win32,space,0.1422,0.0,nondominant,nondominant
test3,test3_fo.csv,1,2020-01-01_12h00.00.000,FO_updated_new,2020.1.2,60,Win32,space,0.1458,0.0,nondominant,nondominant
test3,test3_fo.csv,1,2020-01-01_12h00.00.000,FO_updated_new,2020.1.2,60,Win32,space,0.1564,0.0,nondominant,nondominant
test3,test3_fo.csv,1,2020-01-01_12h00.00.000,FO_updated_new,2020.1.2,60,Win32,space,0.1442,0.0,nondominant,nondominant
test3,test3_fo.csv,1,2020-01-01_12h00.00.000,FO_updated_new,2020.1.2,60,Win32,space,0.1226,0.0,nondominant,nondominant
test3,test3_fo.csv,1,2020-01-01_12h00.00.000,FO_updated_new,2020.1.2,60,Win32,space,0.1374,0.0,nondominant,nondominant
test3,test3_fo.csv,1,2020-01-01_12h00.00.000,FO_updated_new,2020.1.2,60,Win32,space,0.132,0.0,nondominant,nondominant
test3,test3_fo.csv,1,2020-01-01_12h00.00.000,FO_updated_new,2020.1.2,60,Win32,space,0.1279,0.0,nondominant,nondominant
test3,test3_fo.csv,1,2020-01-01_12h00.00.000,FO_updated_new,2020.1.2,60,Win32,space,0.1401,0.0,nondominant,nondominant
test3,test3_fo.csv,1,2020-01-01_12h00.00.000,FO_updated_new,2020.1.2,60,Win32,space,0.1317,0.0,nondominant,nondominant
test3,test3_fo.csv,1,2020-01-01_12h00.00.000,FO_updated_new,2020.1.2,60,Win32,space,0.173,0.0,nondominant,nondominant
test3,test3_fo.csv,1,2020-01-01_12h00.00.000,FO_updated_new,2020.1.2,60,Win32,space,0.1726,0.0,nondominant,nondominant
test3,test3_fo.csv,1,2020-01-01_12h00.00.000,FO_updated_new,2020.1.2,60,Win32,space,0.1553,0.0,nondominant,nondominant
test3,test3_fo.csv,1,2020-01-01_12h00.00.000,FO_updated_new,2020.1.2,60,Win32,space,0.1712,0.0,nondominant,nondominant
test3,test3_fo.csv,1,2020-01-01_12h00.00.000,FO_updated_new,2020.1.2,60,Win32,space,0.1427,0.0,nondominant,nondominant
test3,test3_fo.csv,1,2020-01-01_12h00.00.000,FO_updated_new,2020.1.2,60,Win32,space,0.1562,0.0,nondominant,nondominant
test3,test3_fo.csv,1,2020-01-01_12h00.00.000,FO_updated_new,2020.1.2,60,Win32,space,0.175,0.0,nondominant,nondominant
test3,test3_fo.csv,1,2020-01-01_12h00.00.000,FO_updated_new,2020.1.2,60,Win32,space,0.1462,0.0,nondominant,nondominant
test3,test3_fo.csv,1,2020-01-01_12h00.00.000,FO_updated_new,2020.1.2,60,Win32,space,0.172,0.0,nondominant,nondominant
test3,test3_fo.csv,1,2020-01-01_12h00.00.000,FO_updated_new,2020.1.2,60,Win32,space,0.1385,0.0,nondominant,nondominant
test3,test3_fo.csv,1,2020-01-01_12h00.00.000,FO_updated_new,2020.1.2,60,Win32,space,0.1469,0.0,nondominant,nondominant
test3,test3_fo.csv,1,2020-01-01_12h00.00.000,FO_updated_new,2020.1.2,60,Win32,space,0.1667,0.0,nondominant,nondominant
test3,test3_fo.csv,1,2020-01-01_12h00.00.000,FO_updated_new,2020.1.2,60,Win32,space,0.1901,0.0,nondominant,nondominant
test3,test3_fo.csv,1,2020-01-01_12h00.00.000,FO_updated_new,2020.1.2,60,Win32,space,0.1251,0.0,nondominant,nondominant
test3,test3_fo.csv,1,2020-01-01_12h00.00.000,FO_updated_new,2020.1.2,60,Win32,space,0.1413,0.0,nondominant,nondominant
test3,test3_fo.csv,1,2020-01-01_12h00.00.000,FO_updated_new,2020.1.2,60,Win32,space,0.1721,0.0,nondominant,nondominant
test3,test3_fo.csv,1,2020-01-01_12h00.00.000,FO_updated_new,2020.1.2,60,Win32,space,0.1199,0.0,nondominant,nondominant
test3,test3_fo.csv,1,2020-01-01_12h00.00.000,FO_updated_new,2020.1.2,60,Win32,space,0.1356,0.0,nondominant,nondominant
test3,test3_fo.csv,1,2020-01-01_12h00.00.000,FO_updated_new,2020.1.2,60,Win32,space,0.1739,0.0,nondominant,nondominant
test3,test3_fo.csv,1,2020-01-01_12h00.00.000,FO_updated_new,2020.1.2,60,Win32,space,0.1199,0.0,nondominant,nondominant
test3,test3_fo.csv,1,2020-01-01_12h00.00.000,FO_updated_new,2020.1.2,60,Win32,space,0.152,0.0,nondominant,nondominant
test3,test3_fo.csv,1,2020-01-01_12h00.00.000,FO_updated_new,2020.1.2,60,Win32,space,0.1469,0.0,nondominant,nondominant
test3,test3_fo.csv,1,2020-01-01_12h00.00.000,FO_updated_new,2020.1.2,60,Win32,space,0.1876,0.0,nondominant,nondominant
test3,test3_fo.csv,1,2020-01-01_12h00.00.000,FO_updated_new,2020.1.2,60,Win32,space,0.1372,0.0,nondominant,nondominant
test3,test3_fo.csv,1,2020-01-01_12h00.00.000,FO_updated_new,2020.1.2,60,Win32,space,0.1421,0.0,nondominant,nondominant
test3,test3_fo.csv,1,2020-01-01_12h00.00.000,FO_updated_new,2020.1.2,60,Win32,space,0.1629,0.0,nondominant,nondominant
test3,test3_fo.csv,1,2020-01-01_12h00.00.000,FO_updated_new,2020.1.2,60,Win32,space,0.1528,0.0,nondominant,nondominant
test3,test3_fo.csv,1,2020-01-01_12h00.00.000,FO_updated_new,2020.1.2,60,Win32,space,0.1603,0.0,nondominant,nondominant
test3,test3_fo.csv,1,2020-01-01_12h00.00.000,FO_updated_new,2020.1.2,60,Win32,space,0.1517,0.0,nondominant,nondominant
test3,test3_fo.csv,1,2020-01-01_12h00.00.000,FO_updated_new,2020.1.2,60,Win32,space,0.1903,0.0,nondominant,nondominant
test3,test3_fo.csv,1,2020-01-01_12h00.00.000,FO_updated_new,2020.1.2,60,Win32,space,0.1879,0.0,nondominant,nondominant
test3,test3_fo.csv,1,2020-01-01_12h00.00.000,FO_updated_new,2020.1.2,60,Win32,space,0.1727,0.0,nondominant,nondominant
test3,test3_fo.csv,1,2020-01-01_12h00.00.000,FO_updated_new,2020.1.2,60,Win32,space,0.1703,0.0,nondominant,nondominant
test3,test3_fo.csv,1,2020-01-01_12h00.00.000,FO_updated_new,2020.1.2,60,Win32,space,0.1596,0.0,nondominant,nondominant
test3,test3_fo.csv,1,2020-01-01_12h00.00.000,FO_updated_new,2020.1.2,60,Win32,space,0.1565,0.0,nondominant,nondominant
test3,test3_fo.csv,1,2020-01-01_12h00.00.000,FO_updated_new,2020.1.2,60,Win32,space,0.1581,0.0,nondominant,nondominant
test3,test3_fo.csv,1,2020-01-01_12h00.00.000,FO_updated_new,2020.1.2,60,Win32,space,0.1919,0.0,nondominant,nondominant
test3,test3_fo.csv,1,2020-01-01_12h00.00.000,FO_updated_new,2020.1.2,60,Win32,space,0.2056,0.0,nondominant,nondominant
test3,test3_fo.csv,1,2020-01-01_12h00.00.000,FO_updated_new,2020.1.2,60,Win32,space,0.2008,0.0,nondominant,nondominant
test3,test3_fo.csv,1,2020-01-01_12h00.00.000,FO_updated_new,2020.1.2,60,Win32,space,0.2096,0.0,nondominant,nondominant
test3,test3_fo.csv,1,2020-01-01_12h00.00.000,FO_updated_new,2020.1.2,60,Win32,space,0.1648,0.0,nondominant,nondominant
test3,test3_fo.csv,1,2020-01-01_12h00.00.000,FO_updated_new,2020.1.2,60,Win32,space,0.2014,0.0,nondominant,nondominant
test3,test3_fo.csv,1,2020-01-01_12h00.00.000,FO_updated_new,2020.1.2,60,Win32,space,0.2005,0.0,nondominant,nondominant
test3,test3_fo.csv,1,2020-01-01_12h00.00.000,FO_updated_new,2020.1.2,60,Win32,space,0.1887,0.0,nondominant,nondominant
test3,test3_fo.csv,1,2020-01-01_12h00.00.000,FO_updated_new,2020.1.2,60,Win32,space,0.1743,0.0,nondominant,nondominant
test3,test3_fo.csv,1,2020-01-01_12h00.00.000,FO_updated_new,2020.1.2,60,Win32,space,0.1599,0.0,nondominant,nondominant
test3,test3_fo.csv,1,2020-01-01_12h00.00.000,FO_updated_new,2020.1.2,60,Win32,space,0.1742,0.0,nondominant,nondominant
test3,test3_fo.csv,1,2020-01-01_12h00.00.000,FO_updated_new,2020.1.2,60,Win32,space,0.178,0.0,nondominant,nondominant
test3,test3_fo.csv,1,2020-01-01_12h00.00.000,FO_updated_new,2020.1.2,60,Win32,space,0.2064,0.0,nondominant,nondominant
test3,test3_fo.csv,1,2020-01-01_12h00.00.000,FO_updated_new,2020.1.2,60,Win32,space,0.1881,0.0,nondominant,nondominant
test3,test3_fo.csv,1,2020-01-01_12h00.00.000,FO_updated_new,2020.1.2,60,Win32,space,0.1931,0.0,nondominant,nondominant
test3,test3_fo.csv,1,2020-01-01_12h00.00.000,FO_updated_new,2020.1.2,60,Win32,space,0.1921,0.0,nondominant,nondominant
test3,test3_fo.csv,1,2020-01-01_12h00.00.000,FO_updated_new,2020.1.2,60,Win32,space,0.171,0.0,nondominant,nondominant
test3,test3_fo.csv,1,2020-01-01_12h00.00.000,FO_updated_new,2020.1.2,60,Win32,space,0.1611,0.0,nondominant,nondominant
test3,test3_fo.csv,1,2020-01-01_12h00.00.000,FO_updated_new,2020.1.2,60,Win32,space,0.1713,0.0,nondominant,nondominant
test3,test3_fo.csv,1,2020-01-01_12h00.00.000,FO_updated_new,2020.1.2,60,Win32,space,0.1896,0.0,nondominant,nondominant
test3,test3_fo.csv,1,2020-01-01_12h00.00.000,FO_updated_new,2020.1.2,60,Win32,space,0.1815,0.0,nondominant,nondominant
test3,test3_fo.csv,1,2020-01-01_12h00.00.000,FO_updated_new,2020.1.2,60,Win32,space,0.2151,0.0,nondominant,nondominant
test3,test3_fo.csv,1,2020-01-01_12h00.00.000,FO_updated_new,2020.1.2,60,Win32,space,0.2877,0.0,nondominant,nondominant
test3,test3_fo.csv,1,2020-01-01_12h00.00.000,FO_updated_new,2020.1.2,60,Win32,space,0.0995,0.0,nondominant,nondominant
test3,test3_fo.csv,1,2020-01-01_12h00.00.000,FO_updated_new,2020.1.2,60,Win32,space,0.1082,0.0,nondominant,nondominant
test3,test3_fo.csv,1,2020-01-01_12h00.00.000,FO_updated_new,2020.1.2,60,Win32,space,0.1519,0.0,nondominant,nondominant
test3,test3_fo.csv,1,2020-01-01_12h00.00.000,FO_updated_new,2020.1.2,60,Win32,space,0.1834,0.0,nondominant,nondominant
test3,test3_fo.csv,1,2020-01-01_12h00.00.000,FO_updated_new,2020.1.2,60,Win32,space,0.1895,0.0,nondominant,nondominant
test3,test3_fo.csv,1,2020-01-01_12h00.00.000,FO_updated_new,2020.1.2,60,Win32,space,0.1914,0.0,nondominant,nondominant
test3,test3_fo.csv,1,2020-01-01_12h00.00.000,FO_updated_new,2020.1.2,60,Win32,space,0.1929,0.0,nondominant,nondominant
test3,test3_fo.csv,1,2020-01-01_12h00.00.000,FO_updated_new,2020.1.2,60,Win32,space,0.1924,0.0,nondominant,nondominant
test3,test3_fo.csv,1,2020-01-01_12h00.00.000,FO_updated_new,2020.1.2,60,Win32,space,0.1894,0.0,nondominant,nondominant
test3,test3_fo.csv,1,2020-01-01_12h00.00.000,FO_updated_new,2020.1.2,60,Win32,space,0.2279,0.0,nondominant,nondominant
test3,test3_fo.csv,1,2020-01-01_12h00.00.000,FO_updated_new,2020.1.2,60,Win32,space,0.2181,0.0,nondominant,nondominant
test3,test3_fo.csv,1,2020-01-01_12h00.00.000,FO_updated_new,2020.1.2,60,Win32,space,0.2334,0.0,nondominant,nondominant
test3,test3_fo.csv,1,2020-01-01_12h00.00.000,FO_updated_new,2020.1.2,60,Win32,space,0.2219,0.0,nondominant,nondominant
test3,test3_fo.csv,1,2020-01-01_12h00.00.000,FO_updated_new,2020.1.2,60,Win32,space,0.1697,0.0,nondominant,nondominant
test3,test3_fo.csv,1,2020-01-01_12h00.00.000,FO_updated_new,2020.1.2,60,Win32,space,0.1698,0.0,nondominant,nondominant
test3,test3_fo.csv,1,2020-01-01_12h00.00.000,FO_updated_new,2020.1.2,60,Win32,space,0.1941,0.0,nondominant,nondominant
test3,test3_fo.csv,1,2020-01-01_12h00.00.000,FO_updated_new,2020.1.2,60,Win32,space,0.1871,0.0,nondominant,nondominant
test3,test3_fo.csv,1,2020-01-01_12h00.00.000,FO_updated_new,2020.1.2,60,Win32,space,0.1704,0.0,nondominant,nondominant
test3,test3_fo.csv,1,2020-01-01_12h00.00.000,FO_updated_new,2020.1.2,60,Win32,space,0.177,0.0,nondominant,nondominant
test3,test3_fo.csv,1,2020-01-01_12h00.00.000,FO_updated_new,2020.1.2,60,Win32,space,0.1909,0.0,nondominant,nondominant
test3,test3_fo.csv,1,2020-01-01_12h00.00.000,FO_updated_new,2020.1.2,60,Win32,space,0.1716,0.0,nondominant,nondominant
test3,test3_fo.csv,1,2020-01-01_12h00.00.000,FO_updated_new,2020.1.2,60,Win32,space,0.1779,0.0,nondominant,nondominant
test3,test3_fo.csv,1,2020-01-01_12h00.00.000,FO_updated_new,2020.1.2,60,Win32,space,0.199,0.0,nondominant,nondominant
test3,test3_fo.csv,1,2020-01-01_12h00.00.000,FO_updated_new,2020.1.2,60,Win32,space,0.1986,0.0,nondominant,nondominant
test3,test3_fo.csv,1,2020-01-01_12h00.00.000,FO_updated_new,2020.1.2,60,Win32,space,0.1924,0.0,nondominant,nondominant
test3,test3_fo.csv,1,2020-01-01_12h00.00.000,FO_updated_new,2020.1.2,60,Win32,space,0.4082,0.0,nondominant,nondominant
test3,test3_fo.csv,1,2020-01-01_12h00.00.000,FO_updated_new,2020.1.2,60,Win32,space,0.1398,0.0,nondominant,nondominant
test3,test3_fo.csv,1,2020-01-01_12h00.00.000,FO_updated_new,2020.1.2,60,Win32,space,0.191,0.0,nondominant,nondominant
test3,test3_fo.csv,1,2020-01-01_12h00.00.000,FO_updated_new,2020.1.2,60,Win32,space,0.1711,0.0,nondominant,nondominant
test3,test3_fo.csv,1,2020-01-01_12h00.00.000,FO_updated_new,2020.1.2,60,Win32,space,0.2226,0.0,nondominant,nondominant
test3,test3_fo.csv,1,2020-01-01_12h00.00.000,FO_updated_new,2020.1.2,60,Win32,space,0.135,0.0,nondominant,nondominant
test3,test3_fo.csv,1,2020-01-01_12h00.00.000,FO_updated_new,2020.1.2,60,Win32,space,0.2024,0.0,nondominant,nondominant
test3,test3_fo.csv,1,2020-01-01_12h00.00.000,FO_updated_new,2020.1.2,60,Win32,space,0.1737,0.0,nondominant,nondominant
test3,test3_fo.csv,1,2020-01-01_12h00.00.000,FO_updated_new,2020.1.2,60,Win32,space,0.1817,0.0,nondominant,nondominant
test3,test3_fo.csv,1,2020-01-01_12h00.00.000,FO_updated_new,2020.1.2,60,Win32,space,0.2046,0.0,nondominant,nondominant
test3,test3_fo.csv,1,2020-01-01_12h00.00.000,FO_updated_new,2020.1.2,60,Win32,space,0.1736,0.0,nondominant,nondominant
test3,test3_fo.csv,1,2020-01-01_12h00.00.000,FO_updated_new,2020.1.2,60,Win32,space,0.1831,0.0,nondominant,nondominant
test3,test3_fo.csv,1,2020-01-01_12h00.00.000,FO_updated_new,2020.1.2,60,Win32,space,0.197,0.0,nondominant,nondominant
test3,test3_fo.csv,1,2020-01-01_12h00.00.000,FO_updated_new,2020.1.2,60,Win32,space,0.1893,0.0,nondominant,nondominant
test3,test3_fo.csv,1,2020-01-01_12h00.00.000,FO_updated_new,2020.1.2,60,Win32,space,0.1918,0.0,nondominant,nondominant
test3,test3_fo.csv,1,2020-01-01_12h00.00.000,FO_updated_new,2020.1.2,60,Win32,space,0.198,0.0,nondominant,nondominant
test3,test3_fo.csv,1,2020-01-01_12h00.00.000,FO_updated_new,2020.1.2,60,Win32,space,0.2054,0.0,nondominant,nondominant
test3,test3_fo.csv,1,2020-01-01_12h00.00.000,FO_updated_new,2020.1.2,60,Win32,space,0.1659,0.0,nondominant,nondominant
test3,test3_fo.csv,1,2020-01-01_12h00.00.000,FO_updated_new,2020.1.2,60,Win32,space,0.1947,0.0,nondominant,nondominant
test3,test3_fo.csv,1,2020-01-01_12h00.00.000,FO_updated_new,2020.1.2,60,Win32,space,0.2101,0.0,nondominant,nondominant
test3,test3_fo.csv,1,2020-01-01_12h00.00.000,FO_updated_new,2020.1.2,60,Win32,space,0.1763,0.0,nondominant,nondominant
test3,test3_fo.csv,1,2020-01-01_12h00.00.000,FO_updated_new,2020.1.2,60,Win32,space,0.1858,0.0,nondominant,nondominant
test3,test3_fo.csv,1,2020-01-01_12h00.00.000,FO_updated_new,2020.1.2,60,Win32,space,0.1847,0.0,nondominant,nondominant
test3,test3_fo.csv,1,2020-01-01_12h00.00.000,FO_updated_new,2020.1.2,60,Win32,space,0.2269,0.0,nondominant,nondominant
test3,test3_fo.csv,1,2020-01-01_12h00.00.000,FO_updated_new,2020.1.2,60,Win32,space,0.1917,0.0,nondominant,nondominant
test3,test3_fo.csv,1,2020-01-01_12h00.00.000,FO_updated_new,2020.1.2,60,Win32,space,0.2097,0.0,nondominant,nondominant
test3,test3_fo.csv,1,2020-01-01_12h00.00.000,FO_updated_new,2020.1.2,60,Win32,space,0.1712,0.0,nondominant,nondominant
test3,test3_fo.csv,1,2020-01-01_12h00.00.000,FO_updated_new,2020.1.2,60,Win32,space,0.2074,0.0,nondominant,nondominant
test3,test3_fo.csv,1,2020-01-01_12h00.00.000,FO_updated_new,2020.1.2,60,Win32,space,0.227,0.0,nondominant,nondominant
test3,test3_fo.csv,1,2020-01-01_12h00.00.000,FO_updated_new,2020.1.2,60,Win32,space,0.165,0.0,nondominant,nondominant
test3,test3_fo.csv,1,2020-01-01_12h00.00.000,FO_updated_new,2020.1.2,60,Win32,space,0.204,0.0,nondominant,nondominant
test3,test3_fo.csv,1,2020-01-01_12h00.00.000,FO_updated_new,2020.1.2,60,Win32,space,0.2055,0.0,nondominant,nondominant
test3,test3_fo.csv,1,2020-01-01_12h00.00.000,FO_updated_new,2020.1.2,60,Win32,space,0.2518,0.0,nondominant,nondominant
test3,test3_fo.csv,1,2020-01-01_12h00.00.000,FO_updated_new,2020.1.2,60,Win32,space,0.1444,0.0,nondominant,nondominant
test3,test3_fo.csv,1,2020-01-01_12h00.00.000,FO_updated_new,2020.1.2,60,Win32,space,0.1839,0.0,nondominant,nondominant
test3,test3_fo.csv,1,2020-01-01_12h00.00.000,FO_updated_new,2020.1.2,60,Win32,space,0.1935,0.0,nondominant,nondominant
