id,filename,session,datetime,exp_name,software_version,framerate,os,event_type,cue,correct_resp,response,rt,trial,left_choice,middle_choice,right_choice,stim_onset,stim_offset,iti_onset,iti_offset,iti_dur,cue_dur,stim_with_cue_dur,left_choice_class,left_choice_type,left_choice_color,left_choice_shape,middle_choice_class,middle_choice_type,middle_choice_color,middle_choice_shape,right_choice_class,right_choice_type,right_choice_color,right_choice_shape,block,block_nunique_cues,block_switch_rep,num_responses,first_response,first_response_rt,last_response,last_response_rt,correct,correct_resp_index,correct_resp_rt
sert_test_1,example_data_psychopy_sert_1.csv,2.0,2026-04-09_09h30.49.614,sert_artemis_2025.2.3,2025.2.4,60.24096386,Win32,objects,color,1.0,['1'],[0.7746999999880799],0.0,images/Safe_BearHug_Orange_Oval.png,images/Safe_Goggles_Blue_Rect.png,images/Lethal_Pills_Blue_Oval.png,23.2862,25.3358,22.9341,23.2855,0.35,0.15,1.9,Safe,BearHug,Orange,Oval,Safe,Goggles,Blue,Rect,Lethal,Pills,Blue,Oval,1.0,3,switch,1.0,1.0,0.7746999999880799,1.0,0.7746999999880799,1.0,0.0,0.7746999999880799
sert_test_1,example_data_psychopy_sert_1.csv,2.0,2026-04-09_09h30.49.614,sert_artemis_2025.2.3,2025.2.4,60.24096386,Win32,objects,shape,1.0,['2'],[1.7521000000238445],1.0,images/Lethal_Noose_1_Blue_Oval.png,images/Lethal_Razor_Orange_Rhom.png,images/Safe_SeatBelt_Blue_Rhom.png,25.6865,27.7356,25.3369,25.6854,0.35,0.15,1.9,Lethal,Noose_1,Blue,Oval,Lethal,Razor,Orange,Rhom,Safe,SeatBelt,Blue,Rhom,1.0,3,switch,1.0,2.0,1.7521000000238445,2.0,1.7521000000238445,0.0,,
sert_test_1,example_data_psychopy_sert_1.csv,2.0,2026-04-09_09h30.49.614,sert_artemis_2025.2.3,2025.2.4,60.24096386,Win32,objects,lethality,2.0,['3'],[0.6447000000178775],2.0,images/Lethal_Gun_1_Orange_Rhom.png,images/Safe_Extinguisher_Orange_Oval.png,images/Lethal_Knife_Blue_Oval.png,28.0865,30.1354,27.7371,28.0856,0.35,0.15,1.9,Lethal,Gun_1,Orange,Rhom,Safe,Extinguisher,Orange,Oval,Lethal,Knife,Blue,Oval,1.0,3,switch,1.0,3.0,0.6447000000178775,3.0,0.6447000000178775,0.0,,
sert_test_1,example_data_psychopy_sert_1.csv,2.0,2026-04-09_09h30.49.614,sert_artemis_2025.2.3,2025.2.4,60.24096386,Win32,objects,color,3.0,['1'],[0.9437999999821187],3.0,images/Safe_Goggles_Orange_Rect.png,images/Lethal_Poison_Orange_Oval.png,images/Safe_LifeVest_Blue_Oval.png,30.5872,32.6354,30.1366,30.5854,0.45,0.15,1.9,Safe,Goggles,Orange,Rect,Lethal,Poison,Orange,Oval,Safe,LifeVest,Blue,Oval,1.0,3,switch,1.0,1.0,0.9437999999821187,1.0,0.9437999999821187,0.0,,
sert_test_1,example_data_psychopy_sert_1.csv,2.0,2026-04-09_09h30.49.614,sert_artemis_2025.2.3,2025.2.4,60.24096386,Win32,objects,shape,2.0,,,4.0,images/Inert_Orange_Orange_Rhom.png,images/Inert_Camera_Blue_Rect.png,images/Lethal_Pills_Blue_Rhom.png,32.986,35.0354,32.6362,32.9853,0.35,0.15,1.9,Inert,Orange,Orange,Rhom,Inert,Camera,Blue,Rect,Lethal,Pills,Blue,Rhom,1.0,3,switch,1.0,,,,,0.0,,
sert_test_1,example_data_psychopy_sert_1.csv,2.0,2026-04-09_09h30.49.614,sert_artemis_2025.2.3,2025.2.4,60.24096386,Win32,objects,lethality,2.0,,,5.0,images/Lethal_Noose_1_Blue_Rhom.png,images/Inert_Hat_Orange_Rhom.png,images/Lethal_Poison_Orange_Oval.png,35.3865,37.4354,35.0362,35.3854,0.35,0.15,1.9,Lethal,Noose_1,Blue,Rhom,Inert,Hat,Orange,Rhom,Lethal,Poison,Orange,Oval,1.0,3,switch,1.0,,,,,0.0,,
sert_test_1,example_data_psychopy_sert_1.csv,2.0,2026-04-09_09h30.49.614,sert_artemis_2025.2.3,2025.2.4,60.24096386,Win32,objects,lethality,1.0,,,6.0,images/Lethal_Gun_1_Blue_Rhom.png,images/Inert_Hairbrush_Orange_Rhom.png,images/Inert_Strawberry_Blue_Rect.png,37.7861,39.8352,37.4358,37.7852,0.35,0.15,1.9,Lethal,Gun_1,Blue,Rhom,Inert,Hairbrush,Orange,Rhom,Inert,Strawberry,Blue,Rect,1.0,3,switch,1.0,,,,,0.0,,
sert_test_1,example_data_psychopy_sert_1.csv,2.0,2026-04-09_09h30.49.614,sert_artemis_2025.2.3,2025.2.4,60.24096386,Win32,objects,color,2.0,,,7.0,images/Inert_Hat_Orange_Oval.png,images/Safe_Buoy_Blue_Oval.png,images/Safe_SeatBelt_Orange_Rect.png,40.1864,42.2354,39.836,40.1854,0.35,0.15,1.9,Inert,Hat,Orange,Oval,Safe,Buoy,Blue,Oval,Safe,SeatBelt,Orange,Rect,1.0,3,switch,1.0,,,,,0.0,,
sert_test_1,example_data_psychopy_sert_1.csv,2.0,2026-04-09_09h30.49.614,sert_artemis_2025.2.3,2025.2.4,60.24096386,Win32,objects,color,3.0,,,8.0,images/Safe_BearHug_Blue_Rect.png,images/Lethal_Razor_Blue_Rhom.png,images/Safe_Buoy_Orange_Rhom.png,42.586,44.6353,42.236,42.5853,0.35,0.15,1.9,Safe,BearHug,Blue,Rect,Lethal,Razor,Blue,Rhom,Safe,Buoy,Orange,Rhom,1.0,3,switch,1.0,,,,,0.0,,
sert_test_1,example_data_psychopy_sert_1.csv,2.0,2026-04-09_09h30.49.614,sert_artemis_2025.2.3,2025.2.4,60.24096386,Win32,objects,shape,3.0,,,9.0,images/Lethal_Poison_Orange_Rect.png,images/Safe_Extinguisher_Blue_Rect.png,images/Safe_SeatBelt_Orange_Rhom.png,45.1865,47.2353,44.6367,45.1853,0.55,0.15,1.9,Lethal,Poison,Orange,Rect,Safe,Extinguisher,Blue,Rect,Safe,SeatBelt,Orange,Rhom,1.0,3,switch,1.0,,,,,0.0,,
sert_test_1,example_data_psychopy_sert_1.csv,2.0,2026-04-09_09h30.49.614,sert_artemis_2025.2.3,2025.2.4,60.24096386,Win32,objects,color,1.0,,,10.0,images/Safe_Buoy_Blue_Rhom.png,images/Safe_BearHug_Orange_Oval.png,images/Lethal_Gun_1_Orange_Rhom.png,47.7858,49.8358,47.2365,47.7851,0.55,0.15,1.9,Safe,Buoy,Blue,Rhom,Safe,BearHug,Orange,Oval,Lethal,Gun_1,Orange,Rhom,2.0,1,repeat,1.0,,,,,0.0,,
sert_test_1,example_data_psychopy_sert_1.csv,2.0,2026-04-09_09h30.49.614,sert_artemis_2025.2.3,2025.2.4,60.24096386,Win32,objects,color,2.0,,,11.0,images/Lethal_Noose_1_Orange_Oval.png,images/Safe_Buoy_Blue_Oval.png,images/Safe_LifeVest_Orange_Rect.png,50.3863,52.4351,49.8361,50.3853,0.55,0.15,1.9,Lethal,Noose_1,Orange,Oval,Safe,Buoy,Blue,Oval,Safe,LifeVest,Orange,Rect,2.0,1,repeat,1.0,,,,,0.0,,
sert_test_1,example_data_psychopy_sert_1.csv,2.0,2026-04-09_09h30.49.614,sert_artemis_2025.2.3,2025.2.4,60.24096386,Win32,objects,color,2.0,,,12.0,images/Inert_Hairbrush_Orange_Rhom.png,images/Lethal_Razor_Blue_Rhom.png,images/Lethal_Knife_Orange_Rect.png,52.8864,54.9354,52.4354,52.8853,0.45,0.15,1.9,Inert,Hairbrush,Orange,Rhom,Lethal,Razor,Blue,Rhom,Lethal,Knife,Orange,Rect,2.0,1,repeat,1.0,,,,,0.0,,
sert_test_1,example_data_psychopy_sert_1.csv,2.0,2026-04-09_09h30.49.614,sert_artemis_2025.2.3,2025.2.4,60.24096386,Win32,objects,color,2.0,,,13.0,images/Safe_LifeVest_Orange_Rect.png,images/Safe_Extinguisher_Blue_Oval.png,images/Lethal_Noose_1_Orange_Oval.png,55.2857,57.3352,54.9358,55.2852,0.35,0.15,1.9,Safe,LifeVest,Orange,Rect,Safe,Extinguisher,Blue,Oval,Lethal,Noose_1,Orange,Oval,2.0,1,repeat,1.0,,,,,0.0,,
sert_test_1,example_data_psychopy_sert_1.csv,2.0,2026-04-09_09h30.49.614,sert_artemis_2025.2.3,2025.2.4,60.24096386,Win32,objects,color,1.0,,,14.0,images/Lethal_Poison_Blue_Oval.png,images/Lethal_Gun_1_Orange_Rhom.png,images/Inert_Strawberry_Orange_Oval.png,57.8861,59.9353,57.3355,57.8853,0.55,0.15,1.9,Lethal,Poison,Blue,Oval,Lethal,Gun_1,Orange,Rhom,Inert,Strawberry,Orange,Oval,2.0,1,repeat,1.0,,,,,0.0,,
sert_test_1,example_data_psychopy_sert_1.csv,2.0,2026-04-09_09h30.49.614,sert_artemis_2025.2.3,2025.2.4,60.24096386,Win32,objects,color,2.0,,,15.0,images/Lethal_Knife_Blue_Rect.png,images/Lethal_Pills_Orange_Rhom.png,images/Safe_Buoy_Blue_Rhom.png,60.286,62.3352,59.9354,60.2856,0.35,0.15,1.9,Lethal,Knife,Blue,Rect,Lethal,Pills,Orange,Rhom,Safe,Buoy,Blue,Rhom,2.0,1,repeat,1.0,,,,,0.0,,
sert_test_1,example_data_psychopy_sert_1.csv,2.0,2026-04-09_09h30.49.614,sert_artemis_2025.2.3,2025.2.4,60.24096386,Win32,objects,color,3.0,,,16.0,images/Inert_Orange_Orange_Rect.png,images/Lethal_Knife_Orange_Oval.png,images/Inert_Book_Blue_Oval.png,62.8857,64.935,62.3356,62.8852,0.55,0.15,1.9,Inert,Orange,Orange,Rect,Lethal,Knife,Orange,Oval,Inert,Book,Blue,Oval,2.0,1,repeat,1.0,,,,,0.0,,
sert_test_1,example_data_psychopy_sert_1.csv,2.0,2026-04-09_09h30.49.614,sert_artemis_2025.2.3,2025.2.4,60.24096386,Win32,objects,color,1.0,,,17.0,images/Lethal_Pills_Blue_Rhom.png,images/Inert_Book_Orange_Rhom.png,images/Lethal_Gun_1_Orange_Rect.png,65.3857,67.4353,64.9355,65.3851,0.45,0.15,1.9,Lethal,Pills,Blue,Rhom,Inert,Book,Orange,Rhom,Lethal,Gun_1,Orange,Rect,2.0,1,repeat,1.0,,,,,0.0,,
sert_test_1,example_data_psychopy_sert_1.csv,2.0,2026-04-09_09h30.49.614,sert_artemis_2025.2.3,2025.2.4,60.24096386,Win32,objects,color,2.0,,,18.0,images/Lethal_Noose_1_Blue_Oval.png,images/Safe_LifeVest_Orange_Oval.png,images/Safe_Goggles_Blue_Rect.png,67.786,69.8355,67.4358,67.7852,0.35,0.15,1.9,Lethal,Noose_1,Blue,Oval,Safe,LifeVest,Orange,Oval,Safe,Goggles,Blue,Rect,2.0,1,repeat,1.0,,,,,0.0,,
sert_test_1,example_data_psychopy_sert_1.csv,2.0,2026-04-09_09h30.49.614,sert_artemis_2025.2.3,2025.2.4,60.24096386,Win32,objects,color,3.0,,,19.0,images/Safe_Buoy_Blue_Rect.png,images/Lethal_Razor_Blue_Oval.png,images/Safe_SeatBelt_Orange_Oval.png,70.2859,72.335,69.8358,70.2852,0.45,0.15,1.9,Safe,Buoy,Blue,Rect,Lethal,Razor,Blue,Oval,Safe,SeatBelt,Orange,Oval,2.0,1,repeat,1.0,,,,,0.0,,
sert_test_1,example_data_psychopy_sert_1.csv,2.0,2026-04-09_09h30.49.614,sert_artemis_2025.2.3,2025.2.4,60.24096386,Win32,objects,shape,3.0,,,20.0,images/Lethal_Gun_1_Blue_Rect.png,images/Safe_BearHug_Orange_Rect.png,images/Safe_LifeVest_Blue_Rhom.png,72.8872,74.9351,72.3367,72.8853,0.55,0.15,1.9,Lethal,Gun_1,Blue,Rect,Safe,BearHug,Orange,Rect,Safe,LifeVest,Blue,Rhom,3.0,3,switch,1.0,,,,,0.0,,
sert_test_1,example_data_psychopy_sert_1.csv,2.0,2026-04-09_09h30.49.614,sert_artemis_2025.2.3,2025.2.4,60.24096386,Win32,objects,color,3.0,,,21.0,images/Lethal_Poison_Blue_Oval.png,images/Inert_Book_Blue_Rhom.png,images/Inert_Strawberry_Orange_Oval.png,75.287,77.335,74.9356,75.2852,0.35,0.15,1.9,Lethal,Poison,Blue,Oval,Inert,Book,Blue,Rhom,Inert,Strawberry,Orange,Oval,3.0,3,switch,1.0,,,,,0.0,,
sert_test_1,example_data_psychopy_sert_1.csv,2.0,2026-04-09_09h30.49.614,sert_artemis_2025.2.3,2025.2.4,60.24096386,Win32,objects,color,3.0,,,22.0,images/Lethal_Noose_1_Blue_Oval.png,images/Safe_Buoy_Blue_Rhom.png,images/Safe_Goggles_Orange_Oval.png,77.6855,79.735,77.3355,77.6848,0.35,0.15,1.9,Lethal,Noose_1,Blue,Oval,Safe,Buoy,Blue,Rhom,Safe,Goggles,Orange,Oval,3.0,3,switch,1.0,,,,,0.0,,
sert_test_1,example_data_psychopy_sert_1.csv,2.0,2026-04-09_09h30.49.614,sert_artemis_2025.2.3,2025.2.4,60.24096386,Win32,objects,lethality,2.0,,,23.0,images/Safe_Buoy_Orange_Oval.png,images/Lethal_Razor_Blue_Oval.png,images/Safe_Extinguisher_Blue_Rhom.png,80.2861,82.3353,79.7359,80.2853,0.55,0.15,1.9,Safe,Buoy,Orange,Oval,Lethal,Razor,Blue,Oval,Safe,Extinguisher,Blue,Rhom,3.0,3,switch,1.0,,,,,0.0,,
sert_test_1,example_data_psychopy_sert_1.csv,2.0,2026-04-09_09h30.49.614,sert_artemis_2025.2.3,2025.2.4,60.24096386,Win32,objects,color,3.0,,,24.0,images/Lethal_Knife_Orange_Rect.png,images/Inert_Orange_Orange_Rhom.png,images/Inert_Camera_Blue_Rect.png,82.8861,84.9352,82.3361,82.8851,0.55,0.15,1.9,Lethal,Knife,Orange,Rect,Inert,Orange,Orange,Rhom,Inert,Camera,Blue,Rect,3.0,3,switch,1.0,,,,,0.0,,
sert_test_1,example_data_psychopy_sert_1.csv,2.0,2026-04-09_09h30.49.614,sert_artemis_2025.2.3,2025.2.4,60.24096386,Win32,objects,color,2.0,,,25.0,images/Lethal_Gun_1_Blue_Rect.png,images/Safe_SeatBelt_Orange_Rect.png,images/Safe_Extinguisher_Blue_Rhom.png,85.4858,87.5349,84.9355,85.4851,0.55,0.15,1.9,Lethal,Gun_1,Blue,Rect,Safe,SeatBelt,Orange,Rect,Safe,Extinguisher,Blue,Rhom,3.0,3,switch,1.0,,,,,0.0,,
sert_test_1,example_data_psychopy_sert_1.csv,2.0,2026-04-09_09h30.49.614,sert_artemis_2025.2.3,2025.2.4,60.24096386,Win32,objects,lethality,1.0,,,26.0,images/Inert_Hat_Orange_Oval.png,images/Lethal_Razor_Orange_Rect.png,images/Lethal_Knife_Blue_Oval.png,87.8859,89.9347,87.5361,87.8847,0.35,0.15,1.9,Inert,Hat,Orange,Oval,Lethal,Razor,Orange,Rect,Lethal,Knife,Blue,Oval,3.0,3,switch,1.0,,,,,0.0,,
sert_test_1,example_data_psychopy_sert_1.csv,2.0,2026-04-09_09h30.49.614,sert_artemis_2025.2.3,2025.2.4,60.24096386,Win32,objects,lethality,3.0,,,27.0,images/Inert_Book_Blue_Rect.png,images/Inert_Hairbrush_Orange_Rhom.png,images/Lethal_Noose_1_Orange_Rect.png,90.2862,92.3349,89.9349,90.2849,0.35,0.15,1.9,Inert,Book,Blue,Rect,Inert,Hairbrush,Orange,Rhom,Lethal,Noose_1,Orange,Rect,3.0,3,switch,1.0,,,,,0.0,,
sert_test_1,example_data_psychopy_sert_1.csv,2.0,2026-04-09_09h30.49.614,sert_artemis_2025.2.3,2025.2.4,60.24096386,Win32,objects,shape,1.0,,,28.0,images/Inert_Hairbrush_Blue_Rhom.png,images/Lethal_Gun_1_Blue_Oval.png,images/Inert_Hat_Orange_Oval.png,92.8855,94.9346,92.3356,92.8847,0.55,0.15,1.9,Inert,Hairbrush,Blue,Rhom,Lethal,Gun_1,Blue,Oval,Inert,Hat,Orange,Oval,3.0,3,switch,1.0,,,,,0.0,,
sert_test_1,example_data_psychopy_sert_1.csv,2.0,2026-04-09_09h30.49.614,sert_artemis_2025.2.3,2025.2.4,60.24096386,Win32,objects,shape,3.0,,,29.0,images/Lethal_Pills_Blue_Rect.png,images/Inert_Hairbrush_Orange_Rect.png,images/Inert_Orange_Blue_Rhom.png,95.2853,97.3351,94.935,95.2846,0.35,0.15,1.9,Lethal,Pills,Blue,Rect,Inert,Hairbrush,Orange,Rect,Inert,Orange,Blue,Rhom,3.0,3,switch,1.0,,,,,0.0,,
sert_test_1,example_data_psychopy_sert_1.csv,2.0,2026-04-09_09h30.49.614,sert_artemis_2025.2.3,2025.2.4,60.24096386,Win32,objects,lethality,2.0,,,30.0,images/Lethal_Razor_Blue_Rect.png,images/Safe_BearHug_Blue_Rhom.png,images/Lethal_Gun_1_Orange_Rhom.png,97.8866,99.9352,97.3361,97.8849,0.55,0.15,1.9,Lethal,Razor,Blue,Rect,Safe,BearHug,Blue,Rhom,Lethal,Gun_1,Orange,Rhom,4.0,1,repeat,1.0,,,,,0.0,,
sert_test_1,example_data_psychopy_sert_1.csv,2.0,2026-04-09_09h30.49.614,sert_artemis_2025.2.3,2025.2.4,60.24096386,Win32,objects,lethality,2.0,,,31.0,images/Lethal_Poison_Blue_Oval.png,images/Safe_LifeVest_Orange_Oval.png,images/Lethal_Razor_Orange_Rect.png,100.4854,102.5345,99.9355,100.4848,0.55,0.15,1.9,Lethal,Poison,Blue,Oval,Safe,LifeVest,Orange,Oval,Lethal,Razor,Orange,Rect,4.0,1,repeat,1.0,,,,,0.0,,
sert_test_1,example_data_psychopy_sert_1.csv,2.0,2026-04-09_09h30.49.614,sert_artemis_2025.2.3,2025.2.4,60.24096386,Win32,objects,lethality,2.0,,,32.0,images/Lethal_Gun_1_Orange_Rhom.png,images/Safe_Extinguisher_Blue_Rhom.png,images/Lethal_Knife_Blue_Rect.png,102.8851,104.9347,102.5348,102.8845,0.35,0.15,1.9,Lethal,Gun_1,Orange,Rhom,Safe,Extinguisher,Blue,Rhom,Lethal,Knife,Blue,Rect,4.0,1,repeat,1.0,,,,,0.0,,
sert_test_1,example_data_psychopy_sert_1.csv,2.0,2026-04-09_09h30.49.614,sert_artemis_2025.2.3,2025.2.4,60.24096386,Win32,objects,lethality,1.0,,,33.0,images/Safe_LifeVest_Blue_Oval.png,images/Lethal_Pills_Orange_Oval.png,images/Lethal_Gun_1_Blue_Rect.png,105.4856,107.5345,104.9354,105.4847,0.55,0.15,1.9,Safe,LifeVest,Blue,Oval,Lethal,Pills,Orange,Oval,Lethal,Gun_1,Blue,Rect,4.0,1,repeat,1.0,,,,,0.0,,
sert_test_1,example_data_psychopy_sert_1.csv,2.0,2026-04-09_09h30.49.614,sert_artemis_2025.2.3,2025.2.4,60.24096386,Win32,objects,lethality,1.0,,,34.0,images/Safe_BearHug_Orange_Rect.png,images/Lethal_Noose_1_Orange_Oval.png,images/Lethal_Poison_Blue_Rect.png,107.9847,110.0345,107.5347,107.9845,0.45,0.15,1.9,Safe,BearHug,Orange,Rect,Lethal,Noose_1,Orange,Oval,Lethal,Poison,Blue,Rect,4.0,1,repeat,1.0,,,,,0.0,,
sert_test_1,example_data_psychopy_sert_1.csv,2.0,2026-04-09_09h30.49.614,sert_artemis_2025.2.3,2025.2.4,60.24096386,Win32,objects,lethality,3.0,,,35.0,images/Lethal_Pills_Blue_Rect.png,images/Lethal_Knife_Orange_Rhom.png,images/Safe_Goggles_Blue_Rhom.png,110.385,112.4353,110.0349,110.3846,0.35,0.15,1.9,Lethal,Pills,Blue,Rect,Lethal,Knife,Orange,Rhom,Safe,Goggles,Blue,Rhom,4.0,1,repeat,1.0,,,,,0.0,,
sert_test_1,example_data_psychopy_sert_1.csv,2.0,2026-04-09_09h30.49.614,sert_artemis_2025.2.3,2025.2.4,60.24096386,Win32,objects,lethality,1.0,,,36.0,images/Safe_BearHug_Blue_Oval.png,images/Lethal_Poison_Blue_Rect.png,images/Lethal_Noose_1_Orange_Oval.png,112.8853,114.9345,112.4357,112.8846,0.45,0.15,1.9,Safe,BearHug,Blue,Oval,Lethal,Poison,Blue,Rect,Lethal,Noose_1,Orange,Oval,4.0,1,repeat,1.0,,,,,0.0,,
sert_test_1,example_data_psychopy_sert_1.csv,2.0,2026-04-09_09h30.49.614,sert_artemis_2025.2.3,2025.2.4,60.24096386,Win32,objects,lethality,1.0,,,37.0,images/Safe_LifeVest_Orange_Rect.png,images/Lethal_Knife_Orange_Oval.png,images/Lethal_Pills_Blue_Rect.png,115.2851,117.3349,114.9349,115.2846,0.35,0.15,1.9,Safe,LifeVest,Orange,Rect,Lethal,Knife,Orange,Oval,Lethal,Pills,Blue,Rect,4.0,1,repeat,1.0,,,,,0.0,,
sert_test_1,example_data_psychopy_sert_1.csv,2.0,2026-04-09_09h30.49.614,sert_artemis_2025.2.3,2025.2.4,60.24096386,Win32,objects,lethality,1.0,,,38.0,images/Safe_Extinguisher_Orange_Rhom.png,images/Lethal_Gun_1_Orange_Rect.png,images/Lethal_Razor_Blue_Rhom.png,117.6856,119.7345,117.3352,117.6844,0.35,0.15,1.9,Safe,Extinguisher,Orange,Rhom,Lethal,Gun_1,Orange,Rect,Lethal,Razor,Blue,Rhom,4.0,1,repeat,1.0,,,,,0.0,,
sert_test_1,example_data_psychopy_sert_1.csv,2.0,2026-04-09_09h30.49.614,sert_artemis_2025.2.3,2025.2.4,60.24096386,Win32,objects,lethality,2.0,,,39.0,images/Lethal_Poison_Blue_Oval.png,images/Safe_SeatBelt_Orange_Oval.png,images/Lethal_Knife_Orange_Rect.png,120.0846,122.1344,119.735,120.0843,0.35,0.15,1.9,Lethal,Poison,Blue,Oval,Safe,SeatBelt,Orange,Oval,Lethal,Knife,Orange,Rect,4.0,1,repeat,1.0,,,,,0.0,,
sert_test_1,example_data_psychopy_sert_1.csv,2.0,2026-04-09_09h30.49.614,sert_artemis_2025.2.3,2025.2.4,60.24096386,Win32,objects,shape,3.0,,,40.0,images/Inert_Orange_Orange_Rect.png,images/Lethal_Poison_Blue_Rect.png,images/Inert_Hairbrush_Blue_Oval.png,122.5852,124.6345,122.135,122.5843,0.45,0.15,1.9,Inert,Orange,Orange,Rect,Lethal,Poison,Blue,Rect,Inert,Hairbrush,Blue,Oval,5.0,3,switch,1.0,,,,,0.0,,
sert_test_1,example_data_psychopy_sert_1.csv,2.0,2026-04-09_09h30.49.614,sert_artemis_2025.2.3,2025.2.4,60.24096386,Win32,objects,shape,3.0,,,41.0,images/Lethal_Poison_Blue_Rhom.png,images/Safe_Extinguisher_Orange_Rhom.png,images/Lethal_Knife_Orange_Rect.png,125.1856,127.2346,124.6349,125.1844,0.55,0.15,1.9,Lethal,Poison,Blue,Rhom,Safe,Extinguisher,Orange,Rhom,Lethal,Knife,Orange,Rect,5.0,3,switch,1.0,,,,,0.0,,
sert_test_1,example_data_psychopy_sert_1.csv,2.0,2026-04-09_09h30.49.614,sert_artemis_2025.2.3,2025.2.4,60.24096386,Win32,objects,lethality,2.0,,,42.0,images/Inert_Book_Blue_Oval.png,images/Lethal_Gun_1_Orange_Oval.png,images/Inert_Hat_Orange_Rhom.png,127.7853,129.8343,127.2358,127.7843,0.55,0.15,1.9,Inert,Book,Blue,Oval,Lethal,Gun_1,Orange,Oval,Inert,Hat,Orange,Rhom,5.0,3,switch,1.0,,,,,0.0,,
sert_test_1,example_data_psychopy_sert_1.csv,2.0,2026-04-09_09h30.49.614,sert_artemis_2025.2.3,2025.2.4,60.24096386,Win32,objects,color,1.0,,,43.0,images/Lethal_Gun_1_Orange_Rect.png,images/Lethal_Poison_Blue_Oval.png,images/Inert_Camera_Blue_Rect.png,130.1857,132.2343,129.8358,130.1844,0.35,0.15,1.9,Lethal,Gun_1,Orange,Rect,Lethal,Poison,Blue,Oval,Inert,Camera,Blue,Rect,5.0,3,switch,1.0,,,,,0.0,,
sert_test_1,example_data_psychopy_sert_1.csv,2.0,2026-04-09_09h30.49.614,sert_artemis_2025.2.3,2025.2.4,60.24096386,Win32,objects,lethality,1.0,,,44.0,images/Inert_Book_Orange_Rect.png,images/Lethal_Noose_1_Blue_Rect.png,images/Lethal_Razor_Orange_Rhom.png,132.586,134.6348,132.2355,132.5843,0.35,0.15,1.9,Inert,Book,Orange,Rect,Lethal,Noose_1,Blue,Rect,Lethal,Razor,Orange,Rhom,5.0,3,switch,1.0,,,,,0.0,,
sert_test_1,example_data_psychopy_sert_1.csv,2.0,2026-04-09_09h30.49.614,sert_artemis_2025.2.3,2025.2.4,60.24096386,Win32,objects,shape,3.0,,,45.0,images/Inert_Hairbrush_Blue_Rhom.png,images/Lethal_Razor_Orange_Rhom.png,images/Inert_Strawberry_Orange_Rect.png,135.1863,137.234,134.6362,135.1845,0.55,0.15,1.9,Inert,Hairbrush,Blue,Rhom,Lethal,Razor,Orange,Rhom,Inert,Strawberry,Orange,Rect,5.0,3,switch,1.0,,,,,0.0,,
sert_test_1,example_data_psychopy_sert_1.csv,2.0,2026-04-09_09h30.49.614,sert_artemis_2025.2.3,2025.2.4,60.24096386,Win32,objects,lethality,1.0,,,46.0,images/Lethal_Noose_1_Orange_Oval.png,images/Inert_Camera_Orange_Rect.png,images/Inert_Book_Blue_Oval.png,137.6861,139.7343,137.2345,137.6846,0.45,0.15,1.9,Lethal,Noose_1,Orange,Oval,Inert,Camera,Orange,Rect,Inert,Book,Blue,Oval,5.0,3,switch,1.0,,,,,0.0,,
sert_test_1,example_data_psychopy_sert_1.csv,2.0,2026-04-09_09h30.49.614,sert_artemis_2025.2.3,2025.2.4,60.24096386,Win32,objects,color,3.0,,,47.0,images/Safe_LifeVest_Orange_Rhom.png,images/Lethal_Pills_Orange_Rect.png,images/Safe_SeatBelt_Blue_Rect.png,140.2856,142.3341,139.7354,140.2842,0.55,0.15,1.9,Safe,LifeVest,Orange,Rhom,Lethal,Pills,Orange,Rect,Safe,SeatBelt,Blue,Rect,5.0,3,switch,1.0,,,,,0.0,,
sert_test_1,example_data_psychopy_sert_1.csv,2.0,2026-04-09_09h30.49.614,sert_artemis_2025.2.3,2025.2.4,60.24096386,Win32,objects,lethality,3.0,,,48.0,images/Lethal_Gun_1_Blue_Oval.png,images/Lethal_Poison_Orange_Rhom.png,images/Inert_Camera_Blue_Rhom.png,142.8852,144.9342,142.3347,142.8844,0.55,0.15,1.9,Lethal,Gun_1,Blue,Oval,Lethal,Poison,Orange,Rhom,Inert,Camera,Blue,Rhom,5.0,3,switch,1.0,,,,,0.0,,
sert_test_1,example_data_psychopy_sert_1.csv,2.0,2026-04-09_09h30.49.614,sert_artemis_2025.2.3,2025.2.4,60.24096386,Win32,objects,shape,3.0,,,49.0,images/Lethal_Pills_Blue_Rhom.png,images/Inert_Hat_Orange_Rhom.png,images/Inert_Strawberry_Blue_Rect.png,145.2852,147.3341,144.9351,145.2843,0.35,0.15,1.9,Lethal,Pills,Blue,Rhom,Inert,Hat,Orange,Rhom,Inert,Strawberry,Blue,Rect,5.0,3,switch,1.0,,,,,0.0,,
sert_test_1,example_data_psychopy_sert_1.csv,2.0,2026-04-09_09h30.49.614,sert_artemis_2025.2.3,2025.2.4,60.24096386,Win32,objects,color,2.0,,,50.0,images/Lethal_Noose_1_Orange_Rect.png,images/Safe_Goggles_Blue_Rect.png,images/Safe_Buoy_Orange_Oval.png,147.685,149.734,147.3356,147.6841,0.35,0.15,1.9,Lethal,Noose_1,Orange,Rect,Safe,Goggles,Blue,Rect,Safe,Buoy,Orange,Oval,6.0,1,repeat,1.0,,,,,0.0,,
sert_test_1,example_data_psychopy_sert_1.csv,2.0,2026-04-09_09h30.49.614,sert_artemis_2025.2.3,2025.2.4,60.24096386,Win32,objects,color,3.0,,,51.0,images/Lethal_Knife_Blue_Rect.png,images/Inert_Camera_Blue_Rhom.png,images/Lethal_Noose_1_Orange_Rhom.png,150.1846,152.2338,149.7344,150.184,0.45,0.15,1.9,Lethal,Knife,Blue,Rect,Inert,Camera,Blue,Rhom,Lethal,Noose_1,Orange,Rhom,6.0,1,repeat,1.0,,,,,0.0,,
sert_test_1,example_data_psychopy_sert_1.csv,2.0,2026-04-09_09h30.49.614,sert_artemis_2025.2.3,2025.2.4,60.24096386,Win32,objects,color,3.0,,,52.0,images/Safe_LifeVest_Orange_Oval.png,images/Lethal_Razor_Orange_Rect.png,images/Safe_Extinguisher_Blue_Rect.png,152.6849,154.7339,152.234,152.6841,0.45,0.15,1.9,Safe,LifeVest,Orange,Oval,Lethal,Razor,Orange,Rect,Safe,Extinguisher,Blue,Rect,6.0,1,repeat,1.0,,,,,0.0,,
sert_test_1,example_data_psychopy_sert_1.csv,2.0,2026-04-09_09h30.49.614,sert_artemis_2025.2.3,2025.2.4,60.24096386,Win32,objects,color,3.0,,,53.0,images/Safe_Buoy_Blue_Rhom.png,images/Lethal_Pills_Blue_Rect.png,images/Safe_BearHug_Orange_Rect.png,155.2847,157.3338,154.7341,155.2839,0.55,0.15,1.9,Safe,Buoy,Blue,Rhom,Lethal,Pills,Blue,Rect,Safe,BearHug,Orange,Rect,6.0,1,repeat,1.0,,,,,0.0,,
sert_test_1,example_data_psychopy_sert_1.csv,2.0,2026-04-09_09h30.49.614,sert_artemis_2025.2.3,2025.2.4,60.24096386,Win32,objects,color,2.0,,,54.0,images/Safe_LifeVest_Orange_Oval.png,images/Safe_BearHug_Blue_Rhom.png,images/Lethal_Gun_1_Orange_Rhom.png,157.8847,159.9339,157.3346,157.884,0.55,0.15,1.9,Safe,LifeVest,Orange,Oval,Safe,BearHug,Blue,Rhom,Lethal,Gun_1,Orange,Rhom,6.0,1,repeat,1.0,,,,,0.0,,
sert_test_1,example_data_psychopy_sert_1.csv,2.0,2026-04-09_09h30.49.614,sert_artemis_2025.2.3,2025.2.4,60.24096386,Win32,objects,color,2.0,,,55.0,images/Lethal_Knife_Blue_Rect.png,images/Safe_Extinguisher_Orange_Rect.png,images/Safe_LifeVest_Blue_Rhom.png,160.3848,162.4339,159.9344,160.3839,0.45,0.15,1.9,Lethal,Knife,Blue,Rect,Safe,Extinguisher,Orange,Rect,Safe,LifeVest,Blue,Rhom,6.0,1,repeat,1.0,,,,,0.0,,
sert_test_1,example_data_psychopy_sert_1.csv,2.0,2026-04-09_09h30.49.614,sert_artemis_2025.2.3,2025.2.4,60.24096386,Win32,objects,color,2.0,,,56.0,images/Lethal_Razor_Blue_Rect.png,images/Safe_Buoy_Orange_Rect.png,images/Safe_SeatBelt_Blue_Rhom.png,162.9843,165.034,162.4343,162.9838,0.55,0.15,1.9,Lethal,Razor,Blue,Rect,Safe,Buoy,Orange,Rect,Safe,SeatBelt,Blue,Rhom,6.0,1,repeat,1.0,,,,,0.0,,
sert_test_1,example_data_psychopy_sert_1.csv,2.0,2026-04-09_09h30.49.614,sert_artemis_2025.2.3,2025.2.4,60.24096386,Win32,objects,color,3.0,,,57.0,images/Lethal_Pills_Orange_Rhom.png,images/Inert_Strawberry_Orange_Oval.png,images/Inert_Book_Blue_Rhom.png,165.3845,167.4339,165.0343,165.3838,0.35,0.15,1.9,Lethal,Pills,Orange,Rhom,Inert,Strawberry,Orange,Oval,Inert,Book,Blue,Rhom,6.0,1,repeat,1.0,,,,,0.0,,
sert_test_1,example_data_psychopy_sert_1.csv,2.0,2026-04-09_09h30.49.614,sert_artemis_2025.2.3,2025.2.4,60.24096386,Win32,objects,color,3.0,,,58.0,images/Safe_SeatBelt_Orange_Oval.png,images/Lethal_Gun_1_Orange_Rhom.png,images/Safe_Buoy_Blue_Rhom.png,167.8845,169.9338,167.4343,167.8839,0.45,0.15,1.9,Safe,SeatBelt,Orange,Oval,Lethal,Gun_1,Orange,Rhom,Safe,Buoy,Blue,Rhom,6.0,1,repeat,1.0,,,,,0.0,,
sert_test_1,example_data_psychopy_sert_1.csv,2.0,2026-04-09_09h30.49.614,sert_artemis_2025.2.3,2025.2.4,60.24096386,Win32,objects,color,3.0,,,59.0,images/Inert_Book_Blue_Rhom.png,images/Lethal_Knife_Blue_Rect.png,images/Inert_Hairbrush_Orange_Rect.png,170.4848,172.5341,169.9342,170.4838,0.55,0.15,1.9,Inert,Book,Blue,Rhom,Lethal,Knife,Blue,Rect,Inert,Hairbrush,Orange,Rect,6.0,1,repeat,1.0,,,,,0.0,,
sert_test_1,example_data_psychopy_sert_1.csv,2.0,2026-04-09_09h30.49.614,sert_artemis_2025.2.3,2025.2.4,60.24096386,Win32,objects,shape,3.0,,,60.0,images/Safe_LifeVest_Blue_Rhom.png,images/Lethal_Pills_Orange_Rhom.png,images/Safe_BearHug_Orange_Oval.png,173.0848,175.1344,172.5349,173.0838,0.55,0.15,1.9,Safe,LifeVest,Blue,Rhom,Lethal,Pills,Orange,Rhom,Safe,BearHug,Orange,Oval,7.0,3,switch,1.0,,,,,0.0,,
sert_test_1,example_data_psychopy_sert_1.csv,2.0,2026-04-09_09h30.49.614,sert_artemis_2025.2.3,2025.2.4,60.24096386,Win32,objects,shape,2.0,,,61.0,images/Safe_Extinguisher_Orange_Oval.png,images/Safe_LifeVest_Blue_Rect.png,images/Lethal_Knife_Blue_Oval.png,175.685,177.7338,175.135,175.6843,0.55,0.15,1.9,Safe,Extinguisher,Orange,Oval,Safe,LifeVest,Blue,Rect,Lethal,Knife,Blue,Oval,7.0,3,switch,1.0,,,,,0.0,,
sert_test_1,example_data_psychopy_sert_1.csv,2.0,2026-04-09_09h30.49.614,sert_artemis_2025.2.3,2025.2.4,60.24096386,Win32,objects,shape,2.0,,,62.0,images/Inert_Hat_Blue_Rhom.png,images/Lethal_Noose_1_Blue_Rect.png,images/Lethal_Poison_Orange_Rhom.png,178.1851,180.2336,177.7339,178.1843,0.45,0.15,1.9,Inert,Hat,Blue,Rhom,Lethal,Noose_1,Blue,Rect,Lethal,Poison,Orange,Rhom,7.0,3,switch,1.0,,,,,0.0,,
sert_test_1,example_data_psychopy_sert_1.csv,2.0,2026-04-09_09h30.49.614,sert_artemis_2025.2.3,2025.2.4,60.24096386,Win32,objects,color,2.0,,,63.0,images/Lethal_Razor_Orange_Rect.png,images/Inert_Camera_Blue_Rect.png,images/Inert_Book_Orange_Oval.png,180.6841,182.7337,180.234,180.6835,0.45,0.15,1.9,Lethal,Razor,Orange,Rect,Inert,Camera,Blue,Rect,Inert,Book,Orange,Oval,7.0,3,switch,1.0,,,,,0.0,,
sert_test_1,example_data_psychopy_sert_1.csv,2.0,2026-04-09_09h30.49.614,sert_artemis_2025.2.3,2025.2.4,60.24096386,Win32,objects,color,2.0,,,64.0,images/Lethal_Noose_1_Orange_Rect.png,images/Safe_Buoy_Blue_Rect.png,images/Safe_Extinguisher_Orange_Oval.png,183.2844,185.3342,182.734,183.2836,0.55,0.15,1.9,Lethal,Noose_1,Orange,Rect,Safe,Buoy,Blue,Rect,Safe,Extinguisher,Orange,Oval,7.0,3,switch,1.0,,,,,0.0,,
sert_test_1,example_data_psychopy_sert_1.csv,2.0,2026-04-09_09h30.49.614,sert_artemis_2025.2.3,2025.2.4,60.24096386,Win32,objects,color,3.0,,,65.0,images/Lethal_Pills_Blue_Oval.png,images/Safe_BearHug_Blue_Rhom.png,images/Safe_LifeVest_Orange_Oval.png,185.6845,187.7341,185.3349,185.684,0.35,0.15,1.9,Lethal,Pills,Blue,Oval,Safe,BearHug,Blue,Rhom,Safe,LifeVest,Orange,Oval,7.0,3,switch,1.0,,,,,0.0,,
sert_test_1,example_data_psychopy_sert_1.csv,2.0,2026-04-09_09h30.49.614,sert_artemis_2025.2.3,2025.2.4,60.24096386,Win32,objects,lethality,1.0,,,66.0,images/Lethal_Pills_Blue_Rect.png,images/Inert_Camera_Orange_Rect.png,images/Inert_Orange_Blue_Oval.png,188.2849,190.3335,187.735,188.2842,0.55,0.15,1.9,Lethal,Pills,Blue,Rect,Inert,Camera,Orange,Rect,Inert,Orange,Blue,Oval,7.0,3,switch,1.0,,,,,0.0,,
sert_test_1,example_data_psychopy_sert_1.csv,2.0,2026-04-09_09h30.49.614,sert_artemis_2025.2.3,2025.2.4,60.24096386,Win32,objects,color,3.0,,,67.0,images/Safe_Buoy_Blue_Oval.png,images/Lethal_Gun_1_Blue_Rhom.png,images/Safe_Goggles_Orange_Rhom.png,190.7841,192.8341,190.3346,190.7835,0.45,0.15,1.9,Safe,Buoy,Blue,Oval,Lethal,Gun_1,Blue,Rhom,Safe,Goggles,Orange,Rhom,7.0,3,switch,1.0,,,,,0.0,,
sert_test_1,example_data_psychopy_sert_1.csv,2.0,2026-04-09_09h30.49.614,sert_artemis_2025.2.3,2025.2.4,60.24096386,Win32,objects,color,3.0,,,68.0,images/Inert_Orange_Blue_Rect.png,images/Lethal_Noose_1_Blue_Oval.png,images/Lethal_Gun_1_Orange_Rect.png,193.1843,195.2339,192.8345,193.1836,0.35,0.15,1.9,Inert,Orange,Blue,Rect,Lethal,Noose_1,Blue,Oval,Lethal,Gun_1,Orange,Rect,7.0,3,switch,1.0,,,,,0.0,,
sert_test_1,example_data_psychopy_sert_1.csv,2.0,2026-04-09_09h30.49.614,sert_artemis_2025.2.3,2025.2.4,60.24096386,Win32,objects,shape,3.0,,,69.0,images/Safe_Extinguisher_Blue_Rhom.png,images/Lethal_Razor_Orange_Rhom.png,images/Safe_Goggles_Orange_Rect.png,195.7844,197.8334,195.2346,195.7836,0.55,0.15,1.9,Safe,Extinguisher,Blue,Rhom,Lethal,Razor,Orange,Rhom,Safe,Goggles,Orange,Rect,7.0,3,switch,1.0,,,,,0.0,,
sert_test_1,example_data_psychopy_sert_1.csv,2.0,2026-04-09_09h30.49.614,sert_artemis_2025.2.3,2025.2.4,60.24096386,Win32,objects,shape,2.0,,,70.0,images/Lethal_Noose_1_Orange_Oval.png,images/Lethal_Pills_Orange_Rhom.png,images/Inert_Hairbrush_Blue_Oval.png,198.284,200.3336,197.8336,198.2834,0.45,0.15,1.9,Lethal,Noose_1,Orange,Oval,Lethal,Pills,Orange,Rhom,Inert,Hairbrush,Blue,Oval,8.0,1,repeat,1.0,,,,,0.0,,
sert_test_1,example_data_psychopy_sert_1.csv,2.0,2026-04-09_09h30.49.614,sert_artemis_2025.2.3,2025.2.4,60.24096386,Win32,objects,shape,1.0,,,71.0,images/Safe_Buoy_Orange_Oval.png,images/Safe_BearHug_Blue_Rhom.png,images/Lethal_Noose_1_Orange_Rhom.png,200.8843,202.9335,200.3342,200.8835,0.55,0.15,1.9,Safe,Buoy,Orange,Oval,Safe,BearHug,Blue,Rhom,Lethal,Noose_1,Orange,Rhom,8.0,1,repeat,1.0,,,,,0.0,,
sert_test_1,example_data_psychopy_sert_1.csv,2.0,2026-04-09_09h30.49.614,sert_artemis_2025.2.3,2025.2.4,60.24096386,Win32,objects,shape,1.0,,,72.0,images/Safe_Goggles_Orange_Rhom.png,images/Lethal_Knife_Orange_Oval.png,images/Safe_Buoy_Blue_Oval.png,203.284,205.3334,202.9343,203.2835,0.35,0.15,1.9,Safe,Goggles,Orange,Rhom,Lethal,Knife,Orange,Oval,Safe,Buoy,Blue,Oval,8.0,1,repeat,1.0,,,,,0.0,,
sert_test_1,example_data_psychopy_sert_1.csv,2.0,2026-04-09_09h30.49.614,sert_artemis_2025.2.3,2025.2.4,60.24096386,Win32,objects,shape,2.0,,,73.0,images/Inert_Hat_Blue_Rect.png,images/Inert_Strawberry_Orange_Rhom.png,images/Lethal_Poison_Orange_Rect.png,205.8842,207.9333,205.3337,205.8834,0.55,0.15,1.9,Inert,Hat,Blue,Rect,Inert,Strawberry,Orange,Rhom,Lethal,Poison,Orange,Rect,8.0,1,repeat,1.0,,,,,0.0,,
sert_test_1,example_data_psychopy_sert_1.csv,2.0,2026-04-09_09h30.49.614,sert_artemis_2025.2.3,2025.2.4,60.24096386,Win32,objects,shape,1.0,,,74.0,images/Safe_Goggles_Orange_Oval.png,images/Lethal_Poison_Orange_Rect.png,images/Safe_SeatBelt_Blue_Rect.png,208.3837,210.4338,207.9337,208.3833,0.45,0.15,1.9,Safe,Goggles,Orange,Oval,Lethal,Poison,Orange,Rect,Safe,SeatBelt,Blue,Rect,8.0,1,repeat,1.0,,,,,0.0,,
sert_test_1,example_data_psychopy_sert_1.csv,2.0,2026-04-09_09h30.49.614,sert_artemis_2025.2.3,2025.2.4,60.24096386,Win32,objects,shape,3.0,,,75.0,images/Lethal_Knife_Blue_Oval.png,images/Inert_Hairbrush_Orange_Oval.png,images/Inert_Camera_Blue_Rhom.png,210.785,212.8338,210.4344,210.7836,0.35,0.15,1.9,Lethal,Knife,Blue,Oval,Inert,Hairbrush,Orange,Oval,Inert,Camera,Blue,Rhom,8.0,1,repeat,1.0,,,,,0.0,,
sert_test_1,example_data_psychopy_sert_1.csv,2.0,2026-04-09_09h30.49.614,sert_artemis_2025.2.3,2025.2.4,60.24096386,Win32,objects,shape,2.0,,,76.0,images/Inert_Strawberry_Orange_Oval.png,images/Lethal_Poison_Orange_Rect.png,images/Lethal_Razor_Blue_Oval.png,213.3846,215.4334,212.8339,213.3834,0.55,0.15,1.9,Inert,Strawberry,Orange,Oval,Lethal,Poison,Orange,Rect,Lethal,Razor,Blue,Oval,8.0,1,repeat,1.0,,,,,0.0,,
sert_test_1,example_data_psychopy_sert_1.csv,2.0,2026-04-09_09h30.49.614,sert_artemis_2025.2.3,2025.2.4,60.24096386,Win32,objects,shape,3.0,,,77.0,images/Safe_Buoy_Orange_Rect.png,images/Lethal_Knife_Blue_Rect.png,images/Safe_Extinguisher_Blue_Oval.png,215.7846,217.8335,215.4336,215.7836,0.35,0.15,1.9,Safe,Buoy,Orange,Rect,Lethal,Knife,Blue,Rect,Safe,Extinguisher,Blue,Oval,8.0,1,repeat,1.0,,,,,0.0,,
sert_test_1,example_data_psychopy_sert_1.csv,2.0,2026-04-09_09h30.49.614,sert_artemis_2025.2.3,2025.2.4,60.24096386,Win32,objects,shape,3.0,,,78.0,images/Lethal_Pills_Blue_Rect.png,images/Safe_SeatBelt_Orange_Rect.png,images/Safe_Goggles_Blue_Rhom.png,218.3841,220.4334,217.8339,218.3834,0.55,0.15,1.9,Lethal,Pills,Blue,Rect,Safe,SeatBelt,Orange,Rect,Safe,Goggles,Blue,Rhom,8.0,1,repeat,1.0,,,,,0.0,,
sert_test_1,example_data_psychopy_sert_1.csv,2.0,2026-04-09_09h30.49.614,sert_artemis_2025.2.3,2025.2.4,60.24096386,Win32,objects,shape,1.0,,,79.0,images/Safe_SeatBelt_Orange_Rhom.png,images/Lethal_Noose_1_Orange_Oval.png,images/Lethal_Knife_Blue_Oval.png,220.9835,223.0342,220.4338,220.9831,0.55,0.15,1.9,Safe,SeatBelt,Orange,Rhom,Lethal,Noose_1,Orange,Oval,Lethal,Knife,Blue,Oval,8.0,1,repeat,1.0,,,,,0.0,,
sert_test_1,example_data_psychopy_sert_1.csv,2.0,2026-04-09_09h30.49.614,sert_artemis_2025.2.3,2025.2.4,60.24096386,Win32,objects,shape,3.0,,,80.0,images/Safe_Extinguisher_Blue_Rhom.png,images/Lethal_Poison_Orange_Rhom.png,images/Safe_SeatBelt_Orange_Oval.png,223.4839,225.5332,223.0344,223.4832,0.45,0.15,1.9,Safe,Extinguisher,Blue,Rhom,Lethal,Poison,Orange,Rhom,Safe,SeatBelt,Orange,Oval,9.0,3,switch,1.0,,,,,0.0,,
sert_test_1,example_data_psychopy_sert_1.csv,2.0,2026-04-09_09h30.49.614,sert_artemis_2025.2.3,2025.2.4,60.24096386,Win32,objects,shape,2.0,,,81.0,images/Lethal_Razor_Orange_Oval.png,images/Safe_Buoy_Orange_Rect.png,images/Safe_BearHug_Blue_Oval.png,225.8844,227.9333,225.5335,225.8833,0.35,0.15,1.9,Lethal,Razor,Orange,Oval,Safe,Buoy,Orange,Rect,Safe,BearHug,Blue,Oval,9.0,3,switch,1.0,,,,,0.0,,
sert_test_1,example_data_psychopy_sert_1.csv,2.0,2026-04-09_09h30.49.614,sert_artemis_2025.2.3,2025.2.4,60.24096386,Win32,objects,color,3.0,,,82.0,images/Lethal_Noose_1_Orange_Rhom.png,images/Safe_Extinguisher_Orange_Rect.png,images/Safe_Goggles_Blue_Rhom.png,228.3845,230.4334,227.9337,228.3832,0.45,0.15,1.9,Lethal,Noose_1,Orange,Rhom,Safe,Extinguisher,Orange,Rect,Safe,Goggles,Blue,Rhom,9.0,3,switch,1.0,,,,,0.0,,
sert_test_1,example_data_psychopy_sert_1.csv,2.0,2026-04-09_09h30.49.614,sert_artemis_2025.2.3,2025.2.4,60.24096386,Win32,objects,color,2.0,,,83.0,images/Inert_Orange_Blue_Oval.png,images/Inert_Book_Orange_Rhom.png,images/Lethal_Poison_Blue_Rhom.png,230.8843,232.9334,230.4338,230.8832,0.45,0.15,1.9,Inert,Orange,Blue,Oval,Inert,Book,Orange,Rhom,Lethal,Poison,Blue,Rhom,9.0,3,switch,1.0,,,,,0.0,,
sert_test_1,example_data_psychopy_sert_1.csv,2.0,2026-04-09_09h30.49.614,sert_artemis_2025.2.3,2025.2.4,60.24096386,Win32,objects,lethality,3.0,,,84.0,images/Inert_Hairbrush_Blue_Rect.png,images/Inert_Camera_Orange_Oval.png,images/Lethal_Pills_Blue_Oval.png,233.3841,235.4332,232.9345,233.3831,0.45,0.15,1.9,Inert,Hairbrush,Blue,Rect,Inert,Camera,Orange,Oval,Lethal,Pills,Blue,Oval,9.0,3,switch,1.0,,,,,0.0,,
sert_test_1,example_data_psychopy_sert_1.csv,2.0,2026-04-09_09h30.49.614,sert_artemis_2025.2.3,2025.2.4,60.24096386,Win32,objects,lethality,3.0,,,85.0,images/Lethal_Gun_1_Blue_Rect.png,images/Lethal_Pills_Orange_Rhom.png,images/Inert_Hat_Orange_Rect.png,235.7861,237.833,235.4338,235.7836,0.35,0.15,1.9,Lethal,Gun_1,Blue,Rect,Lethal,Pills,Orange,Rhom,Inert,Hat,Orange,Rect,9.0,3,switch,1.0,,,,,0.0,,
sert_test_1,example_data_psychopy_sert_1.csv,2.0,2026-04-09_09h30.49.614,sert_artemis_2025.2.3,2025.2.4,60.24096386,Win32,objects,lethality,2.0,,,86.0,images/Lethal_Pills_Blue_Oval.png,images/Inert_Orange_Orange_Oval.png,images/Lethal_Knife_Orange_Rhom.png,238.2834,240.333,237.8335,238.2829,0.45,0.15,1.9,Lethal,Pills,Blue,Oval,Inert,Orange,Orange,Oval,Lethal,Knife,Orange,Rhom,9.0,3,switch,1.0,,,,,0.0,,
sert_test_1,example_data_psychopy_sert_1.csv,2.0,2026-04-09_09h30.49.614,sert_artemis_2025.2.3,2025.2.4,60.24096386,Win32,objects,shape,2.0,,,87.0,images/Safe_Buoy_Blue_Rect.png,images/Safe_LifeVest_Orange_Oval.png,images/Lethal_Poison_Orange_Rect.png,240.7838,242.8333,240.3336,240.7829,0.45,0.15,1.9,Safe,Buoy,Blue,Rect,Safe,LifeVest,Orange,Oval,Lethal,Poison,Orange,Rect,9.0,3,switch,1.0,,,,,0.0,,
sert_test_1,example_data_psychopy_sert_1.csv,2.0,2026-04-09_09h30.49.614,sert_artemis_2025.2.3,2025.2.4,60.24096386,Win32,objects,color,2.0,,,88.0,images/Lethal_Gun_1_Blue_Rect.png,images/Inert_Strawberry_Orange_Oval.png,images/Lethal_Noose_1_Blue_Rhom.png,243.3848,245.4331,242.8344,243.383,0.55,0.15,1.9,Lethal,Gun_1,Blue,Rect,Inert,Strawberry,Orange,Oval,Lethal,Noose_1,Blue,Rhom,9.0,3,switch,1.0,,,,,0.0,,
sert_test_1,example_data_psychopy_sert_1.csv,2.0,2026-04-09_09h30.49.614,sert_artemis_2025.2.3,2025.2.4,60.24096386,Win32,objects,color,2.0,,,89.0,images/Safe_Buoy_Orange_Rhom.png,images/Safe_SeatBelt_Blue_Oval.png,images/Lethal_Pills_Orange_Oval.png,245.7845,247.8331,245.4336,245.7835,0.35,0.15,1.9,Safe,Buoy,Orange,Rhom,Safe,SeatBelt,Blue,Oval,Lethal,Pills,Orange,Oval,9.0,3,switch,1.0,,,,,0.0,,
sert_test_1,example_data_psychopy_sert_1.csv,2.0,2026-04-09_09h30.49.614,sert_artemis_2025.2.3,2025.2.4,60.24096386,Win32,objects,lethality,1.0,,,90.0,images/Lethal_Knife_Blue_Rhom.png,images/Inert_Camera_Orange_Rhom.png,images/Inert_Orange_Blue_Rect.png,248.2848,250.3331,247.8341,248.2829,0.45,0.15,1.9,Lethal,Knife,Blue,Rhom,Inert,Camera,Orange,Rhom,Inert,Orange,Blue,Rect,10.0,1,repeat,1.0,,,,,0.0,,
sert_test_1,example_data_psychopy_sert_1.csv,2.0,2026-04-09_09h30.49.614,sert_artemis_2025.2.3,2025.2.4,60.24096386,Win32,objects,lethality,3.0,,,91.0,images/Safe_LifeVest_Orange_Rhom.png,images/Safe_BearHug_Blue_Oval.png,images/Lethal_Razor_Orange_Oval.png,250.8833,252.9332,250.3335,250.8828,0.55,0.15,1.9,Safe,LifeVest,Orange,Rhom,Safe,BearHug,Blue,Oval,Lethal,Razor,Orange,Oval,10.0,1,repeat,1.0,,,,,0.0,,
sert_test_1,example_data_psychopy_sert_1.csv,2.0,2026-04-09_09h30.49.614,sert_artemis_2025.2.3,2025.2.4,60.24096386,Win32,objects,lethality,2.0,,,92.0,images/Inert_Hat_Orange_Oval.png,images/Lethal_Poison_Blue_Oval.png,images/Inert_Hairbrush_Blue_Rhom.png,253.284,255.3327,252.9338,253.2829,0.35,0.15,1.9,Inert,Hat,Orange,Oval,Lethal,Poison,Blue,Oval,Inert,Hairbrush,Blue,Rhom,10.0,1,repeat,1.0,,,,,0.0,,
sert_test_1,example_data_psychopy_sert_1.csv,2.0,2026-04-09_09h30.49.614,sert_artemis_2025.2.3,2025.2.4,60.24096386,Win32,objects,lethality,1.0,,,93.0,images/Lethal_Razor_Orange_Rhom.png,images/Inert_Camera_Blue_Rhom.png,images/Inert_Strawberry_Orange_Rect.png,255.6836,257.7328,255.3331,255.6828,0.35,0.15,1.9,Lethal,Razor,Orange,Rhom,Inert,Camera,Blue,Rhom,Inert,Strawberry,Orange,Rect,10.0,1,repeat,1.0,,,,,0.0,,
sert_test_1,example_data_psychopy_sert_1.csv,2.0,2026-04-09_09h30.49.614,sert_artemis_2025.2.3,2025.2.4,60.24096386,Win32,objects,lethality,2.0,,,94.0,images/Safe_SeatBelt_Blue_Oval.png,images/Lethal_Knife_Orange_Oval.png,images/Safe_Goggles_Orange_Rect.png,258.0834,260.1327,257.7331,258.0827,0.35,0.15,1.9,Safe,SeatBelt,Blue,Oval,Lethal,Knife,Orange,Oval,Safe,Goggles,Orange,Rect,10.0,1,repeat,1.0,,,,,0.0,,
sert_test_1,example_data_psychopy_sert_1.csv,2.0,2026-04-09_09h30.49.614,sert_artemis_2025.2.3,2025.2.4,60.24096386,Win32,objects,lethality,1.0,,,95.0,images/Lethal_Noose_1_Blue_Rect.png,images/Safe_LifeVest_Orange_Rect.png,images/Safe_Extinguisher_Blue_Oval.png,260.6841,262.7328,260.1332,260.6827,0.55,0.15,1.9,Lethal,Noose_1,Blue,Rect,Safe,LifeVest,Orange,Rect,Safe,Extinguisher,Blue,Oval,10.0,1,repeat,1.0,,,,,0.0,,
sert_test_1,example_data_psychopy_sert_1.csv,2.0,2026-04-09_09h30.49.614,sert_artemis_2025.2.3,2025.2.4,60.24096386,Win32,objects,lethality,1.0,,,96.0,images/Lethal_Razor_Orange_Rect.png,images/Inert_Book_Blue_Rect.png,images/Inert_Orange_Orange_Rhom.png,263.1833,265.2327,262.7333,263.1828,0.45,0.15,1.9,Lethal,Razor,Orange,Rect,Inert,Book,Blue,Rect,Inert,Orange,Orange,Rhom,10.0,1,repeat,1.0,,,,,0.0,,
sert_test_1,example_data_psychopy_sert_1.csv,2.0,2026-04-09_09h30.49.614,sert_artemis_2025.2.3,2025.2.4,60.24096386,Win32,objects,lethality,1.0,,,97.0,images/Lethal_Poison_Blue_Rhom.png,images/Safe_Buoy_Orange_Rhom.png,images/Safe_LifeVest_Blue_Oval.png,265.6837,267.7328,265.2334,265.6827,0.45,0.15,1.9,Lethal,Poison,Blue,Rhom,Safe,Buoy,Orange,Rhom,Safe,LifeVest,Blue,Oval,10.0,1,repeat,1.0,,,,,0.0,,
sert_test_1,example_data_psychopy_sert_1.csv,2.0,2026-04-09_09h30.49.614,sert_artemis_2025.2.3,2025.2.4,60.24096386,Win32,objects,lethality,2.0,,,98.0,images/Inert_Hairbrush_Blue_Oval.png,images/Lethal_Noose_1_Orange_Oval.png,images/Inert_Book_Orange_Rect.png,268.183,270.2328,267.7333,268.1826,0.45,0.15,1.9,Inert,Hairbrush,Blue,Oval,Lethal,Noose_1,Orange,Oval,Inert,Book,Orange,Rect,10.0,1,repeat,1.0,,,,,0.0,,
sert_test_1,example_data_psychopy_sert_1.csv,2.0,2026-04-09_09h30.49.614,sert_artemis_2025.2.3,2025.2.4,60.24096386,Win32,objects,lethality,1.0,,,99.0,images/Lethal_Knife_Orange_Rect.png,images/Safe_BearHug_Blue_Rect.png,images/Safe_Goggles_Orange_Oval.png,270.584,272.6331,270.2331,270.583,0.35,0.15,1.9,Lethal,Knife,Orange,Rect,Safe,BearHug,Blue,Rect,Safe,Goggles,Orange,Oval,10.0,1,repeat,1.0,,,,,0.0,,
sert_test_1,example_data_psychopy_sert_1.csv,2.0,2026-04-09_09h30.49.614,sert_artemis_2025.2.3,2025.2.4,60.24096386,Win32,objects,lethality,2.0,,,100.0,images/Safe_SeatBelt_Blue_Rect.png,images/Lethal_Razor_Blue_Rhom.png,images/Safe_Buoy_Orange_Rhom.png,273.0837,275.1328,272.6336,273.0828,0.45,0.15,1.9,Safe,SeatBelt,Blue,Rect,Lethal,Razor,Blue,Rhom,Safe,Buoy,Orange,Rhom,11.0,3,switch,1.0,,,,,0.0,,
sert_test_1,example_data_psychopy_sert_1.csv,2.0,2026-04-09_09h30.49.614,sert_artemis_2025.2.3,2025.2.4,60.24096386,Win32,objects,lethality,1.0,,,101.0,images/Lethal_Noose_1_Orange_Rect.png,images/Safe_Buoy_Blue_Rect.png,images/Safe_BearHug_Orange_Oval.png,275.4834,277.5326,275.1337,275.4829,0.35,0.15,1.9,Lethal,Noose_1,Orange,Rect,Safe,Buoy,Blue,Rect,Safe,BearHug,Orange,Oval,11.0,3,switch,1.0,,,,,0.0,,
sert_test_1,example_data_psychopy_sert_1.csv,2.0,2026-04-09_09h30.49.614,sert_artemis_2025.2.3,2025.2.4,60.24096386,Win32,objects,lethality,3.0,,,102.0,images/Lethal_Gun_1_Blue_Rect.png,images/Lethal_Noose_1_Orange_Rhom.png,images/Safe_Goggles_Orange_Rect.png,277.8833,279.9326,277.5329,277.8827,0.35,0.15,1.9,Lethal,Gun_1,Blue,Rect,Lethal,Noose_1,Orange,Rhom,Safe,Goggles,Orange,Rect,11.0,3,switch,1.0,,,,,0.0,,
sert_test_1,example_data_psychopy_sert_1.csv,2.0,2026-04-09_09h30.49.614,sert_artemis_2025.2.3,2025.2.4,60.24096386,Win32,objects,color,1.0,,,103.0,images/Lethal_Gun_1_Blue_Oval.png,images/Safe_Extinguisher_Orange_Oval.png,images/Lethal_Pills_Orange_Rhom.png,280.4834,282.5325,279.9337,280.4829,0.55,0.15,1.9,Lethal,Gun_1,Blue,Oval,Safe,Extinguisher,Orange,Oval,Lethal,Pills,Orange,Rhom,11.0,3,switch,1.0,,,,,0.0,,
sert_test_1,example_data_psychopy_sert_1.csv,2.0,2026-04-09_09h30.49.614,sert_artemis_2025.2.3,2025.2.4,60.24096386,Win32,objects,shape,3.0,,,104.0,images/Lethal_Poison_Blue_Oval.png,images/Inert_Camera_Orange_Oval.png,images/Inert_Camera_Blue_Rect.png,282.8839,284.9326,282.534,282.8825,0.35,0.15,1.9,Lethal,Poison,Blue,Oval,Inert,Camera,Orange,Oval,Inert,Camera,Blue,Rect,11.0,3,switch,1.0,,,,,0.0,,
sert_test_1,example_data_psychopy_sert_1.csv,2.0,2026-04-09_09h30.49.614,sert_artemis_2025.2.3,2025.2.4,60.24096386,Win32,objects,lethality,2.0,,,105.0,images/Lethal_Pills_Orange_Rect.png,images/Safe_Extinguisher_Orange_Rhom.png,images/Lethal_Gun_1_Blue_Rhom.png,285.3835,287.4325,284.934,285.3824,0.45,0.15,1.9,Lethal,Pills,Orange,Rect,Safe,Extinguisher,Orange,Rhom,Lethal,Gun_1,Blue,Rhom,11.0,3,switch,1.0,,,,,0.0,,
sert_test_1,example_data_psychopy_sert_1.csv,2.0,2026-04-09_09h30.49.614,sert_artemis_2025.2.3,2025.2.4,60.24096386,Win32,objects,lethality,1.0,,,106.0,images/Lethal_Knife_Blue_Rhom.png,images/Inert_Hat_Blue_Rect.png,images/Inert_Strawberry_Orange_Rhom.png,287.8825,289.9325,287.433,287.8823,0.45,0.15,1.9,Lethal,Knife,Blue,Rhom,Inert,Hat,Blue,Rect,Inert,Strawberry,Orange,Rhom,11.0,3,switch,1.0,,,,,0.0,,
sert_test_1,example_data_psychopy_sert_1.csv,2.0,2026-04-09_09h30.49.614,sert_artemis_2025.2.3,2025.2.4,60.24096386,Win32,objects,shape,1.0,,,107.0,images/Inert_Orange_Blue_Rect.png,images/Lethal_Pills_Blue_Rhom.png,images/Inert_Hat_Orange_Rhom.png,290.4837,292.5328,289.9333,290.4825,0.55,0.15,1.9,Inert,Orange,Blue,Rect,Lethal,Pills,Blue,Rhom,Inert,Hat,Orange,Rhom,11.0,3,switch,1.0,,,,,0.0,,
sert_test_1,example_data_psychopy_sert_1.csv,2.0,2026-04-09_09h30.49.614,sert_artemis_2025.2.3,2025.2.4,60.24096386,Win32,objects,shape,3.0,,,108.0,images/Safe_SeatBelt_Blue_Rect.png,images/Lethal_Gun_1_Orange_Rect.png,images/Safe_Extinguisher_Orange_Oval.png,292.9836,295.0325,292.5333,292.9827,0.45,0.15,1.9,Safe,SeatBelt,Blue,Rect,Lethal,Gun_1,Orange,Rect,Safe,Extinguisher,Orange,Oval,11.0,3,switch,1.0,,,,,0.0,,
sert_test_1,example_data_psychopy_sert_1.csv,2.0,2026-04-09_09h30.49.614,sert_artemis_2025.2.3,2025.2.4,60.24096386,Win32,objects,color,1.0,,,109.0,images/Inert_Strawberry_Orange_Rect.png,images/Inert_Book_Blue_Oval.png,images/Lethal_Noose_1_Blue_Rect.png,295.3839,297.4323,295.0339,295.3829,0.35,0.15,1.9,Inert,Strawberry,Orange,Rect,Inert,Book,Blue,Oval,Lethal,Noose_1,Blue,Rect,11.0,3,switch,1.0,,,,,0.0,,
sert_test_1,example_data_psychopy_sert_1.csv,2.0,2026-04-09_09h30.49.614,sert_artemis_2025.2.3,2025.2.4,60.24096386,Win32,objects,lethality,3.0,,,110.0,images/Lethal_Knife_Blue_Oval.png,images/Lethal_Poison_Orange_Rhom.png,images/Safe_Goggles_Orange_Oval.png,297.8836,299.9324,297.4333,297.8823,0.45,0.15,1.9,Lethal,Knife,Blue,Oval,Lethal,Poison,Orange,Rhom,Safe,Goggles,Orange,Oval,12.0,1,repeat,1.0,,,,,0.0,,
sert_test_1,example_data_psychopy_sert_1.csv,2.0,2026-04-09_09h30.49.614,sert_artemis_2025.2.3,2025.2.4,60.24096386,Win32,objects,lethality,3.0,,,111.0,images/Lethal_Poison_Orange_Rect.png,images/Lethal_Noose_1_Blue_Oval.png,images/Safe_Buoy_Orange_Oval.png,300.4838,302.5325,299.9326,300.4823,0.55,0.15,1.9,Lethal,Poison,Orange,Rect,Lethal,Noose_1,Blue,Oval,Safe,Buoy,Orange,Oval,12.0,1,repeat,1.0,,,,,0.0,,
sert_test_1,example_data_psychopy_sert_1.csv,2.0,2026-04-09_09h30.49.614,sert_artemis_2025.2.3,2025.2.4,60.24096386,Win32,objects,lethality,1.0,,,112.0,images/Safe_LifeVest_Orange_Rect.png,images/Lethal_Pills_Orange_Rhom.png,images/Lethal_Poison_Blue_Rect.png,302.9827,305.0324,302.5331,302.9823,0.45,0.15,1.9,Safe,LifeVest,Orange,Rect,Lethal,Pills,Orange,Rhom,Lethal,Poison,Blue,Rect,12.0,1,repeat,1.0,,,,,0.0,,
sert_test_1,example_data_psychopy_sert_1.csv,2.0,2026-04-09_09h30.49.614,sert_artemis_2025.2.3,2025.2.4,60.24096386,Win32,objects,lethality,2.0,,,113.0,images/Lethal_Pills_Blue_Oval.png,images/Safe_SeatBelt_Orange_Oval.png,images/Lethal_Gun_1_Orange_Rhom.png,305.5831,307.6323,305.033,305.5822,0.55,0.15,1.9,Lethal,Pills,Blue,Oval,Safe,SeatBelt,Orange,Oval,Lethal,Gun_1,Orange,Rhom,12.0,1,repeat,1.0,,,,,0.0,,
sert_test_1,example_data_psychopy_sert_1.csv,2.0,2026-04-09_09h30.49.614,sert_artemis_2025.2.3,2025.2.4,60.24096386,Win32,objects,lethality,3.0,,,114.0,images/Lethal_Razor_Blue_Oval.png,images/Lethal_Knife_Orange_Rhom.png,images/Safe_LifeVest_Blue_Rhom.png,308.0838,310.1323,307.633,308.0824,0.45,0.15,1.9,Lethal,Razor,Blue,Oval,Lethal,Knife,Orange,Rhom,Safe,LifeVest,Blue,Rhom,12.0,1,repeat,1.0,,,,,0.0,,
sert_test_1,example_data_psychopy_sert_1.csv,2.0,2026-04-09_09h30.49.614,sert_artemis_2025.2.3,2025.2.4,60.24096386,Win32,objects,lethality,1.0,,,115.0,images/Safe_SeatBelt_Blue_Rhom.png,images/Lethal_Pills_Blue_Rect.png,images/Lethal_Gun_1_Orange_Rhom.png,310.5829,312.6321,310.1331,310.5821,0.45,0.15,1.9,Safe,SeatBelt,Blue,Rhom,Lethal,Pills,Blue,Rect,Lethal,Gun_1,Orange,Rhom,12.0,1,repeat,1.0,,,,,0.0,,
sert_test_1,example_data_psychopy_sert_1.csv,2.0,2026-04-09_09h30.49.614,sert_artemis_2025.2.3,2025.2.4,60.24096386,Win32,objects,lethality,1.0,,,116.0,images/Safe_Extinguisher_Blue_Oval.png,images/Lethal_Poison_Blue_Rhom.png,images/Lethal_Noose_1_Orange_Oval.png,312.9829,315.0321,312.6326,312.9821,0.35,0.15,1.9,Safe,Extinguisher,Blue,Oval,Lethal,Poison,Blue,Rhom,Lethal,Noose_1,Orange,Oval,12.0,1,repeat,1.0,,,,,0.0,,
sert_test_1,example_data_psychopy_sert_1.csv,2.0,2026-04-09_09h30.49.614,sert_artemis_2025.2.3,2025.2.4,60.24096386,Win32,objects,lethality,3.0,,,117.0,images/Lethal_Gun_1_Blue_Rect.png,images/Lethal_Razor_Orange_Oval.png,images/Safe_BearHug_Blue_Oval.png,315.4824,317.5323,315.0324,315.482,0.45,0.15,1.9,Lethal,Gun_1,Blue,Rect,Lethal,Razor,Orange,Oval,Safe,BearHug,Blue,Oval,12.0,1,repeat,1.0,,,,,0.0,,
sert_test_1,example_data_psychopy_sert_1.csv,2.0,2026-04-09_09h30.49.614,sert_artemis_2025.2.3,2025.2.4,60.24096386,Win32,objects,lethality,1.0,,,118.0,images/Safe_LifeVest_Orange_Rhom.png,images/Lethal_Pills_Blue_Rhom.png,images/Lethal_Knife_Orange_Rect.png,317.9832,320.0319,317.533,317.9823,0.45,0.15,1.9,Safe,LifeVest,Orange,Rhom,Lethal,Pills,Blue,Rhom,Lethal,Knife,Orange,Rect,12.0,1,repeat,1.0,,,,,0.0,,
sert_test_1,example_data_psychopy_sert_1.csv,2.0,2026-04-09_09h30.49.614,sert_artemis_2025.2.3,2025.2.4,60.24096386,Win32,objects,lethality,3.0,,,119.0,images/Lethal_Noose_1_Blue_Oval.png,images/Lethal_Razor_Orange_Rhom.png,images/Safe_Buoy_Blue_Rhom.png,320.5834,322.6319,320.0323,320.5824,0.55,0.15,1.9,Lethal,Noose_1,Blue,Oval,Lethal,Razor,Orange,Rhom,Safe,Buoy,Blue,Rhom,12.0,1,repeat,1.0,,,,,0.0,,
sert_test_2,example_data_psychopy_sert_2.csv,,2025-12-22_14h24.46.803,sert_artemis_2025.2.3,2025.2.3,59.95203837,MacIntel,objects,color,1.0,['1'],[0.8830000000000027],0.0,images/Safe_BearHug_Orange_Oval.png,images/Safe_Goggles_Blue_Rect.png,images/Lethal_Pills_Blue_Oval.png,26.205,28.242,28.242,28.592,0.35,0.15,1.9,Safe,BearHug,Orange,Oval,Safe,Goggles,Blue,Rect,Lethal,Pills,Blue,Oval,1.0,3,switch,1.0,1.0,0.8830000000000027,1.0,0.8830000000000027,1.0,0.0,0.8830000000000027
sert_test_2,example_data_psychopy_sert_2.csv,,2025-12-22_14h24.46.803,sert_artemis_2025.2.3,2025.2.3,59.95203837,MacIntel,objects,shape,1.0,['1'],[1.283999999999999],1.0,images/Lethal_Noose_1_Blue_Oval.png,images/Lethal_Razor_Orange_Rhom.png,images/Safe_SeatBelt_Blue_Rhom.png,28.596,30.642,30.642,30.991,0.35,0.15,1.9,Lethal,Noose_1,Blue,Oval,Lethal,Razor,Orange,Rhom,Safe,SeatBelt,Blue,Rhom,1.0,3,switch,1.0,1.0,1.283999999999999,1.0,1.283999999999999,1.0,0.0,1.283999999999999
sert_test_2,example_data_psychopy_sert_2.csv,,2025-12-22_14h24.46.803,sert_artemis_2025.2.3,2025.2.3,59.95203837,MacIntel,objects,lethality,2.0,['2'],[1.689],2.0,images/Lethal_Gun_1_Orange_Rhom.png,images/Safe_Extinguisher_Orange_Oval.png,images/Lethal_Knife_Blue_Oval.png,30.995,33.042,33.042,33.391,0.35,0.15,1.9,Lethal,Gun_1,Orange,Rhom,Safe,Extinguisher,Orange,Oval,Lethal,Knife,Blue,Oval,1.0,3,switch,1.0,2.0,1.689,2.0,1.689,1.0,0.0,1.689
sert_test_2,example_data_psychopy_sert_2.csv,,2025-12-22_14h24.46.803,sert_artemis_2025.2.3,2025.2.3,59.95203837,MacIntel,objects,color,3.0,['3'],[1.1600000000000037],3.0,images/Safe_Goggles_Orange_Rect.png,images/Lethal_Poison_Orange_Oval.png,images/Safe_LifeVest_Blue_Oval.png,33.395,35.442,35.442,35.891,0.45,0.15,1.9,Safe,Goggles,Orange,Rect,Lethal,Poison,Orange,Oval,Safe,LifeVest,Blue,Oval,1.0,3,switch,1.0,3.0,1.1600000000000037,3.0,1.1600000000000037,1.0,0.0,1.1600000000000037
sert_test_2,example_data_psychopy_sert_2.csv,,2025-12-22_14h24.46.803,sert_artemis_2025.2.3,2025.2.3,59.95203837,MacIntel,objects,shape,2.0,['2'],[1.3740000000000023],4.0,images/Inert_Orange_Orange_Rhom.png,images/Inert_Camera_Blue_Rect.png,images/Lethal_Pills_Blue_Rhom.png,35.895,37.942,37.942,38.292,0.35,0.15,1.9,Inert,Orange,Orange,Rhom,Inert,Camera,Blue,Rect,Lethal,Pills,Blue,Rhom,1.0,3,switch,1.0,2.0,1.3740000000000023,2.0,1.3740000000000023,1.0,0.0,1.3740000000000023
sert_test_2,example_data_psychopy_sert_2.csv,,2025-12-22_14h24.46.803,sert_artemis_2025.2.3,2025.2.3,59.95203837,MacIntel,objects,lethality,2.0,['2'],[1.073999999999998],5.0,images/Lethal_Noose_1_Blue_Rhom.png,images/Inert_Hat_Orange_Rhom.png,images/Lethal_Poison_Orange_Oval.png,38.295,40.341,40.341,40.691,0.35,0.15,1.9,Lethal,Noose_1,Blue,Rhom,Inert,Hat,Orange,Rhom,Lethal,Poison,Orange,Oval,1.0,3,switch,1.0,2.0,1.073999999999998,2.0,1.073999999999998,1.0,0.0,1.073999999999998
sert_test_2,example_data_psychopy_sert_2.csv,,2025-12-22_14h24.46.803,sert_artemis_2025.2.3,2025.2.3,59.95203837,MacIntel,objects,lethality,1.0,['1'],[1.5200000000000031],6.0,images/Lethal_Gun_1_Blue_Rhom.png,images/Inert_Hairbrush_Orange_Rhom.png,images/Inert_Strawberry_Blue_Rect.png,40.692,42.741,42.742,43.092,0.35,0.15,1.9,Lethal,Gun_1,Blue,Rhom,Inert,Hairbrush,Orange,Rhom,Inert,Strawberry,Blue,Rect,1.0,3,switch,1.0,1.0,1.5200000000000031,1.0,1.5200000000000031,1.0,0.0,1.5200000000000031
sert_test_2,example_data_psychopy_sert_2.csv,,2025-12-22_14h24.46.803,sert_artemis_2025.2.3,2025.2.3,59.95203837,MacIntel,objects,color,2.0,['2'],[0.9960000000000022],7.0,images/Inert_Hat_Orange_Oval.png,images/Safe_Buoy_Blue_Oval.png,images/Safe_SeatBelt_Orange_Rect.png,43.094,45.142,45.142,45.492,0.35,0.15,1.9,Inert,Hat,Orange,Oval,Safe,Buoy,Blue,Oval,Safe,SeatBelt,Orange,Rect,1.0,3,switch,1.0,2.0,0.9960000000000022,2.0,0.9960000000000022,1.0,0.0,0.9960000000000022
sert_test_2,example_data_psychopy_sert_2.csv,,2025-12-22_14h24.46.803,sert_artemis_2025.2.3,2025.2.3,59.95203837,MacIntel,objects,color,3.0,['3'],[1.391999999999996],8.0,images/Safe_BearHug_Blue_Rect.png,images/Lethal_Razor_Blue_Rhom.png,images/Safe_Buoy_Orange_Rhom.png,45.492,47.542,47.542,47.891,0.35,0.15,1.9,Safe,BearHug,Blue,Rect,Lethal,Razor,Blue,Rhom,Safe,Buoy,Orange,Rhom,1.0,3,switch,1.0,3.0,1.391999999999996,3.0,1.391999999999996,1.0,0.0,1.391999999999996
sert_test_2,example_data_psychopy_sert_2.csv,,2025-12-22_14h24.46.803,sert_artemis_2025.2.3,2025.2.3,59.95203837,MacIntel,objects,shape,3.0,['3'],[1.4950000000000045],9.0,images/Lethal_Poison_Orange_Rect.png,images/Safe_Extinguisher_Blue_Rect.png,images/Safe_SeatBelt_Orange_Rhom.png,47.893,49.942,49.942,50.492,0.55,0.15,1.9,Lethal,Poison,Orange,Rect,Safe,Extinguisher,Blue,Rect,Safe,SeatBelt,Orange,Rhom,1.0,3,switch,1.0,3.0,1.4950000000000045,3.0,1.4950000000000045,1.0,0.0,1.4950000000000045
sert_test_2,example_data_psychopy_sert_2.csv,,2025-12-22_14h24.46.803,sert_artemis_2025.2.3,2025.2.3,59.95203837,MacIntel,objects,color,1.0,['1'],[1.0429999999999922],10.0,images/Safe_Buoy_Blue_Rhom.png,images/Safe_BearHug_Orange_Oval.png,images/Lethal_Gun_1_Orange_Rhom.png,50.495,52.543,52.543,53.092,0.55,0.15,1.9,Safe,Buoy,Blue,Rhom,Safe,BearHug,Orange,Oval,Lethal,Gun_1,Orange,Rhom,2.0,1,repeat,1.0,1.0,1.0429999999999922,1.0,1.0429999999999922,1.0,0.0,1.0429999999999922
sert_test_2,example_data_psychopy_sert_2.csv,,2025-12-22_14h24.46.803,sert_artemis_2025.2.3,2025.2.3,59.95203837,MacIntel,objects,color,2.0,['2'],[1.0700000000000074],11.0,images/Lethal_Noose_1_Orange_Oval.png,images/Safe_Buoy_Blue_Oval.png,images/Safe_LifeVest_Orange_Rect.png,53.094,55.142,55.142,55.694,0.55,0.15,1.9,Lethal,Noose_1,Orange,Oval,Safe,Buoy,Blue,Oval,Safe,LifeVest,Orange,Rect,2.0,1,repeat,1.0,2.0,1.0700000000000074,2.0,1.0700000000000074,1.0,0.0,1.0700000000000074
sert_test_2,example_data_psychopy_sert_2.csv,,2025-12-22_14h24.46.803,sert_artemis_2025.2.3,2025.2.3,59.95203837,MacIntel,objects,color,2.0,['2'],[0.8950000000000102],12.0,images/Inert_Hairbrush_Orange_Rhom.png,images/Lethal_Razor_Blue_Rhom.png,images/Lethal_Knife_Orange_Rect.png,55.699,57.742,57.743,58.192,0.45,0.15,1.9,Inert,Hairbrush,Orange,Rhom,Lethal,Razor,Blue,Rhom,Lethal,Knife,Orange,Rect,2.0,1,repeat,1.0,2.0,0.8950000000000102,2.0,0.8950000000000102,1.0,0.0,0.8950000000000102
sert_test_2,example_data_psychopy_sert_2.csv,,2025-12-22_14h24.46.803,sert_artemis_2025.2.3,2025.2.3,59.95203837,MacIntel,objects,color,2.0,['2'],[1.01400000000001],13.0,images/Safe_LifeVest_Orange_Rect.png,images/Safe_Extinguisher_Blue_Oval.png,images/Lethal_Noose_1_Orange_Oval.png,58.195,60.243,60.243,60.593,0.35,0.15,1.9,Safe,LifeVest,Orange,Rect,Safe,Extinguisher,Blue,Oval,Lethal,Noose_1,Orange,Oval,2.0,1,repeat,1.0,2.0,1.01400000000001,2.0,1.01400000000001,1.0,0.0,1.01400000000001
sert_test_2,example_data_psychopy_sert_2.csv,,2025-12-22_14h24.46.803,sert_artemis_2025.2.3,2025.2.3,59.95203837,MacIntel,objects,color,1.0,['1'],[0.8689999999999998],14.0,images/Lethal_Poison_Blue_Oval.png,images/Lethal_Gun_1_Orange_Rhom.png,images/Inert_Strawberry_Orange_Oval.png,60.595,62.642,62.643,63.192,0.55,0.15,1.9,Lethal,Poison,Blue,Oval,Lethal,Gun_1,Orange,Rhom,Inert,Strawberry,Orange,Oval,2.0,1,repeat,1.0,1.0,0.8689999999999998,1.0,0.8689999999999998,1.0,0.0,0.8689999999999998
sert_test_2,example_data_psychopy_sert_2.csv,,2025-12-22_14h24.46.803,sert_artemis_2025.2.3,2025.2.3,59.95203837,MacIntel,objects,color,2.0,['2'],[1.0019999999999953],15.0,images/Lethal_Knife_Blue_Rect.png,images/Lethal_Pills_Orange_Rhom.png,images/Safe_Buoy_Blue_Rhom.png,63.195,65.242,65.242,65.592,0.35,0.15,1.9,Lethal,Knife,Blue,Rect,Lethal,Pills,Orange,Rhom,Safe,Buoy,Blue,Rhom,2.0,1,repeat,1.0,2.0,1.0019999999999953,2.0,1.0019999999999953,1.0,0.0,1.0019999999999953
sert_test_2,example_data_psychopy_sert_2.csv,,2025-12-22_14h24.46.803,sert_artemis_2025.2.3,2025.2.3,59.95203837,MacIntel,objects,color,3.0,['3'],[1.034000000000006],16.0,images/Inert_Orange_Orange_Rect.png,images/Lethal_Knife_Orange_Oval.png,images/Inert_Book_Blue_Oval.png,65.595,67.643,67.643,68.192,0.55,0.15,1.9,Inert,Orange,Orange,Rect,Lethal,Knife,Orange,Oval,Inert,Book,Blue,Oval,2.0,1,repeat,1.0,3.0,1.034000000000006,3.0,1.034000000000006,1.0,0.0,1.034000000000006
sert_test_2,example_data_psychopy_sert_2.csv,,2025-12-22_14h24.46.803,sert_artemis_2025.2.3,2025.2.3,59.95203837,MacIntel,objects,color,1.0,['1'],[1.1170000000000044],17.0,images/Lethal_Pills_Blue_Rhom.png,images/Inert_Book_Orange_Rhom.png,images/Lethal_Gun_1_Orange_Rect.png,68.195,70.242,70.244,70.693,0.45,0.15,1.9,Lethal,Pills,Blue,Rhom,Inert,Book,Orange,Rhom,Lethal,Gun_1,Orange,Rect,2.0,1,repeat,1.0,1.0,1.1170000000000044,1.0,1.1170000000000044,1.0,0.0,1.1170000000000044
sert_test_2,example_data_psychopy_sert_2.csv,,2025-12-22_14h24.46.803,sert_artemis_2025.2.3,2025.2.3,59.95203837,MacIntel,objects,color,2.0,['2'],[0.9100000000000108],18.0,images/Lethal_Noose_1_Blue_Oval.png,images/Safe_LifeVest_Orange_Oval.png,images/Safe_Goggles_Blue_Rect.png,70.696,72.743,72.743,73.091,0.35,0.15,1.9,Lethal,Noose_1,Blue,Oval,Safe,LifeVest,Orange,Oval,Safe,Goggles,Blue,Rect,2.0,1,repeat,1.0,2.0,0.9100000000000108,2.0,0.9100000000000108,1.0,0.0,0.9100000000000108
sert_test_2,example_data_psychopy_sert_2.csv,,2025-12-22_14h24.46.803,sert_artemis_2025.2.3,2025.2.3,59.95203837,MacIntel,objects,color,3.0,['3'],[0.8059999999999974],19.0,images/Safe_Buoy_Blue_Rect.png,images/Lethal_Razor_Blue_Oval.png,images/Safe_SeatBelt_Orange_Oval.png,73.094,75.142,75.143,75.592,0.45,0.15,1.9,Safe,Buoy,Blue,Rect,Lethal,Razor,Blue,Oval,Safe,SeatBelt,Orange,Oval,2.0,1,repeat,1.0,3.0,0.8059999999999974,3.0,0.8059999999999974,1.0,0.0,0.8059999999999974
sert_test_2,example_data_psychopy_sert_2.csv,,2025-12-22_14h24.46.803,sert_artemis_2025.2.3,2025.2.3,59.95203837,MacIntel,objects,shape,3.0,['2'],[1.0010000000000048],20.0,images/Lethal_Gun_1_Blue_Rect.png,images/Safe_BearHug_Orange_Rect.png,images/Safe_LifeVest_Blue_Rhom.png,75.6,77.644,77.644,78.193,0.55,0.15,1.9,Lethal,Gun_1,Blue,Rect,Safe,BearHug,Orange,Rect,Safe,LifeVest,Blue,Rhom,3.0,3,switch,1.0,2.0,1.0010000000000048,2.0,1.0010000000000048,0.0,,
sert_test_2,example_data_psychopy_sert_2.csv,,2025-12-22_14h24.46.803,sert_artemis_2025.2.3,2025.2.3,59.95203837,MacIntel,objects,color,3.0,['3'],[1.3279999999999887],21.0,images/Lethal_Poison_Blue_Oval.png,images/Inert_Book_Blue_Rhom.png,images/Inert_Strawberry_Orange_Oval.png,78.195,80.243,80.243,80.593,0.35,0.15,1.9,Lethal,Poison,Blue,Oval,Inert,Book,Blue,Rhom,Inert,Strawberry,Orange,Oval,3.0,3,switch,1.0,3.0,1.3279999999999887,3.0,1.3279999999999887,1.0,0.0,1.3279999999999887
sert_test_2,example_data_psychopy_sert_2.csv,,2025-12-22_14h24.46.803,sert_artemis_2025.2.3,2025.2.3,59.95203837,MacIntel,objects,color,3.0,['3'],[1.5330000000000013],22.0,images/Lethal_Noose_1_Blue_Oval.png,images/Safe_Buoy_Blue_Rhom.png,images/Safe_Goggles_Orange_Oval.png,80.596,82.643,82.643,82.992,0.35,0.15,1.9,Lethal,Noose_1,Blue,Oval,Safe,Buoy,Blue,Rhom,Safe,Goggles,Orange,Oval,3.0,3,switch,1.0,3.0,1.5330000000000013,3.0,1.5330000000000013,1.0,0.0,1.5330000000000013
sert_test_2,example_data_psychopy_sert_2.csv,,2025-12-22_14h24.46.803,sert_artemis_2025.2.3,2025.2.3,59.95203837,MacIntel,objects,lethality,2.0,['2'],[1.9080000000000013],23.0,images/Safe_Buoy_Orange_Oval.png,images/Lethal_Razor_Blue_Oval.png,images/Safe_Extinguisher_Blue_Rhom.png,82.996,85.043,85.043,85.593,0.55,0.15,1.9,Safe,Buoy,Orange,Oval,Lethal,Razor,Blue,Oval,Safe,Extinguisher,Blue,Rhom,3.0,3,switch,1.0,2.0,1.9080000000000013,2.0,1.9080000000000013,1.0,0.0,1.9080000000000013
sert_test_2,example_data_psychopy_sert_2.csv,,2025-12-22_14h24.46.803,sert_artemis_2025.2.3,2025.2.3,59.95203837,MacIntel,objects,color,3.0,['3'],[1.0060000000000002],24.0,images/Lethal_Knife_Orange_Rect.png,images/Inert_Orange_Orange_Rhom.png,images/Inert_Camera_Blue_Rect.png,85.597,87.644,87.644,88.192,0.55,0.15,1.9,Lethal,Knife,Orange,Rect,Inert,Orange,Orange,Rhom,Inert,Camera,Blue,Rect,3.0,3,switch,1.0,3.0,1.0060000000000002,3.0,1.0060000000000002,1.0,0.0,1.0060000000000002
sert_test_2,example_data_psychopy_sert_2.csv,,2025-12-22_14h24.46.803,sert_artemis_2025.2.3,2025.2.3,59.95203837,MacIntel,objects,color,2.0,['2'],[0.8359999999999985],25.0,images/Lethal_Gun_1_Blue_Rect.png,images/Safe_SeatBelt_Orange_Rect.png,images/Safe_Extinguisher_Blue_Rhom.png,88.193,90.255,90.255,90.793,0.55,0.15,1.9,Lethal,Gun_1,Blue,Rect,Safe,SeatBelt,Orange,Rect,Safe,Extinguisher,Blue,Rhom,3.0,3,switch,1.0,2.0,0.8359999999999985,2.0,0.8359999999999985,1.0,0.0,0.8359999999999985
sert_test_2,example_data_psychopy_sert_2.csv,,2025-12-22_14h24.46.803,sert_artemis_2025.2.3,2025.2.3,59.95203837,MacIntel,objects,lethality,1.0,['1'],[1.3900000000000006],26.0,images/Inert_Hat_Orange_Oval.png,images/Lethal_Razor_Orange_Rect.png,images/Lethal_Knife_Blue_Oval.png,90.802,92.843,92.843,93.194,0.35,0.15,1.9,Inert,Hat,Orange,Oval,Lethal,Razor,Orange,Rect,Lethal,Knife,Blue,Oval,3.0,3,switch,1.0,1.0,1.3900000000000006,1.0,1.3900000000000006,1.0,0.0,1.3900000000000006
sert_test_2,example_data_psychopy_sert_2.csv,,2025-12-22_14h24.46.803,sert_artemis_2025.2.3,2025.2.3,59.95203837,MacIntel,objects,lethality,3.0,['1'],[1.6680000000000064],27.0,images/Inert_Book_Blue_Rect.png,images/Inert_Hairbrush_Orange_Rhom.png,images/Lethal_Noose_1_Orange_Rect.png,93.196,95.243,95.244,95.594,0.35,0.15,1.9,Inert,Book,Blue,Rect,Inert,Hairbrush,Orange,Rhom,Lethal,Noose_1,Orange,Rect,3.0,3,switch,1.0,1.0,1.6680000000000064,1.0,1.6680000000000064,0.0,,
sert_test_2,example_data_psychopy_sert_2.csv,,2025-12-22_14h24.46.803,sert_artemis_2025.2.3,2025.2.3,59.95203837,MacIntel,objects,shape,1.0,['1'],[1.4909999999999997],28.0,images/Inert_Hairbrush_Blue_Rhom.png,images/Lethal_Gun_1_Blue_Oval.png,images/Inert_Hat_Orange_Oval.png,95.597,97.644,97.644,98.193,0.55,0.15,1.9,Inert,Hairbrush,Blue,Rhom,Lethal,Gun_1,Blue,Oval,Inert,Hat,Orange,Oval,3.0,3,switch,1.0,1.0,1.4909999999999997,1.0,1.4909999999999997,1.0,0.0,1.4909999999999997
sert_test_2,example_data_psychopy_sert_2.csv,,2025-12-22_14h24.46.803,sert_artemis_2025.2.3,2025.2.3,59.95203837,MacIntel,objects,shape,3.0,['3'],[1.4499999999999886],29.0,images/Lethal_Pills_Blue_Rect.png,images/Inert_Hairbrush_Orange_Rect.png,images/Inert_Orange_Blue_Rhom.png,98.196,100.244,100.244,100.594,0.35,0.15,1.9,Lethal,Pills,Blue,Rect,Inert,Hairbrush,Orange,Rect,Inert,Orange,Blue,Rhom,3.0,3,switch,1.0,3.0,1.4499999999999886,3.0,1.4499999999999886,1.0,0.0,1.4499999999999886
sert_test_2,example_data_psychopy_sert_2.csv,,2025-12-22_14h24.46.803,sert_artemis_2025.2.3,2025.2.3,59.95203837,MacIntel,objects,lethality,2.0,['3'],[1.543999999999997],30.0,images/Lethal_Razor_Blue_Rect.png,images/Safe_BearHug_Blue_Rhom.png,images/Lethal_Gun_1_Orange_Rhom.png,100.598,102.644,102.644,103.193,0.55,0.15,1.9,Lethal,Razor,Blue,Rect,Safe,BearHug,Blue,Rhom,Lethal,Gun_1,Orange,Rhom,4.0,1,repeat,1.0,3.0,1.543999999999997,3.0,1.543999999999997,0.0,,
sert_test_2,example_data_psychopy_sert_2.csv,,2025-12-22_14h24.46.803,sert_artemis_2025.2.3,2025.2.3,59.95203837,MacIntel,objects,lethality,2.0,['2'],[1.6839999999999975],31.0,images/Lethal_Poison_Blue_Oval.png,images/Safe_LifeVest_Orange_Oval.png,images/Lethal_Razor_Orange_Rect.png,103.196,105.244,105.244,105.793,0.55,0.15,1.9,Lethal,Poison,Blue,Oval,Safe,LifeVest,Orange,Oval,Lethal,Razor,Orange,Rect,4.0,1,repeat,1.0,2.0,1.6839999999999975,2.0,1.6839999999999975,1.0,0.0,1.6839999999999975
sert_test_2,example_data_psychopy_sert_2.csv,,2025-12-22_14h24.46.803,sert_artemis_2025.2.3,2025.2.3,59.95203837,MacIntel,objects,lethality,2.0,['2'],[1.6199999999999903],32.0,images/Lethal_Gun_1_Orange_Rhom.png,images/Safe_Extinguisher_Blue_Rhom.png,images/Lethal_Knife_Blue_Rect.png,105.794,107.844,107.844,108.194,0.35,0.15,1.9,Lethal,Gun_1,Orange,Rhom,Safe,Extinguisher,Blue,Rhom,Lethal,Knife,Blue,Rect,4.0,1,repeat,1.0,2.0,1.6199999999999903,2.0,1.6199999999999903,1.0,0.0,1.6199999999999903
sert_test_2,example_data_psychopy_sert_2.csv,,2025-12-22_14h24.46.803,sert_artemis_2025.2.3,2025.2.3,59.95203837,MacIntel,objects,lethality,1.0,['1'],[1.4840000000000089],33.0,images/Safe_LifeVest_Blue_Oval.png,images/Lethal_Pills_Orange_Oval.png,images/Lethal_Gun_1_Blue_Rect.png,108.195,110.244,110.244,110.794,0.55,0.15,1.9,Safe,LifeVest,Blue,Oval,Lethal,Pills,Orange,Oval,Lethal,Gun_1,Blue,Rect,4.0,1,repeat,1.0,1.0,1.4840000000000089,1.0,1.4840000000000089,1.0,0.0,1.4840000000000089
sert_test_2,example_data_psychopy_sert_2.csv,,2025-12-22_14h24.46.803,sert_artemis_2025.2.3,2025.2.3,59.95203837,MacIntel,objects,lethality,1.0,['1'],[1.6740000000000066],34.0,images/Safe_BearHug_Orange_Rect.png,images/Lethal_Noose_1_Orange_Oval.png,images/Lethal_Poison_Blue_Rect.png,110.796,112.844,112.844,113.294,0.45,0.15,1.9,Safe,BearHug,Orange,Rect,Lethal,Noose_1,Orange,Oval,Lethal,Poison,Blue,Rect,4.0,1,repeat,1.0,1.0,1.6740000000000066,1.0,1.6740000000000066,1.0,0.0,1.6740000000000066
sert_test_2,example_data_psychopy_sert_2.csv,,2025-12-22_14h24.46.803,sert_artemis_2025.2.3,2025.2.3,59.95203837,MacIntel,objects,lethality,3.0,['3'],[1.8859999999999957],35.0,images/Lethal_Pills_Blue_Rect.png,images/Lethal_Knife_Orange_Rhom.png,images/Safe_Goggles_Blue_Rhom.png,113.295,115.344,115.344,115.694,0.35,0.15,1.9,Lethal,Pills,Blue,Rect,Lethal,Knife,Orange,Rhom,Safe,Goggles,Blue,Rhom,4.0,1,repeat,1.0,3.0,1.8859999999999957,3.0,1.8859999999999957,1.0,0.0,1.8859999999999957
sert_test_2,example_data_psychopy_sert_2.csv,,2025-12-22_14h24.46.803,sert_artemis_2025.2.3,2025.2.3,59.95203837,MacIntel,objects,lethality,1.0,['1'],[1.3340000000000032],36.0,images/Safe_BearHug_Blue_Oval.png,images/Lethal_Poison_Blue_Rect.png,images/Lethal_Noose_1_Orange_Oval.png,115.696,117.743,117.744,118.194,0.45,0.15,1.9,Safe,BearHug,Blue,Oval,Lethal,Poison,Blue,Rect,Lethal,Noose_1,Orange,Oval,4.0,1,repeat,1.0,1.0,1.3340000000000032,1.0,1.3340000000000032,1.0,0.0,1.3340000000000032
sert_test_2,example_data_psychopy_sert_2.csv,,2025-12-22_14h24.46.803,sert_artemis_2025.2.3,2025.2.3,59.95203837,MacIntel,objects,lethality,1.0,['1'],[1.5670000000000073],37.0,images/Safe_LifeVest_Orange_Rect.png,images/Lethal_Knife_Orange_Oval.png,images/Lethal_Pills_Blue_Rect.png,118.196,120.244,120.244,120.594,0.35,0.15,1.9,Safe,LifeVest,Orange,Rect,Lethal,Knife,Orange,Oval,Lethal,Pills,Blue,Rect,4.0,1,repeat,1.0,1.0,1.5670000000000073,1.0,1.5670000000000073,1.0,0.0,1.5670000000000073
sert_test_2,example_data_psychopy_sert_2.csv,,2025-12-22_14h24.46.803,sert_artemis_2025.2.3,2025.2.3,59.95203837,MacIntel,objects,lethality,1.0,['1'],[1.4050000000000011],38.0,images/Safe_Extinguisher_Orange_Rhom.png,images/Lethal_Gun_1_Orange_Rect.png,images/Lethal_Razor_Blue_Rhom.png,120.596,122.646,122.647,122.994,0.35,0.15,1.9,Safe,Extinguisher,Orange,Rhom,Lethal,Gun_1,Orange,Rect,Lethal,Razor,Blue,Rhom,4.0,1,repeat,1.0,1.0,1.4050000000000011,1.0,1.4050000000000011,1.0,0.0,1.4050000000000011
sert_test_2,example_data_psychopy_sert_2.csv,,2025-12-22_14h24.46.803,sert_artemis_2025.2.3,2025.2.3,59.95203837,MacIntel,objects,lethality,2.0,['2'],[1.563999999999993],39.0,images/Lethal_Poison_Blue_Oval.png,images/Safe_SeatBelt_Orange_Oval.png,images/Lethal_Knife_Orange_Rect.png,123.0,125.045,125.045,125.394,0.35,0.15,1.9,Lethal,Poison,Blue,Oval,Safe,SeatBelt,Orange,Oval,Lethal,Knife,Orange,Rect,4.0,1,repeat,1.0,2.0,1.563999999999993,2.0,1.563999999999993,1.0,0.0,1.563999999999993
sert_test_2,example_data_psychopy_sert_2.csv,,2025-12-22_14h24.46.803,sert_artemis_2025.2.3,2025.2.3,59.95203837,MacIntel,objects,shape,3.0,['3'],[1.6910000000000025],40.0,images/Inert_Orange_Orange_Rect.png,images/Lethal_Poison_Blue_Rect.png,images/Inert_Hairbrush_Blue_Oval.png,125.401,127.444,127.444,127.894,0.45,0.15,1.9,Inert,Orange,Orange,Rect,Lethal,Poison,Blue,Rect,Inert,Hairbrush,Blue,Oval,5.0,3,switch,1.0,3.0,1.6910000000000025,3.0,1.6910000000000025,1.0,0.0,1.6910000000000025
sert_test_2,example_data_psychopy_sert_2.csv,,2025-12-22_14h24.46.803,sert_artemis_2025.2.3,2025.2.3,59.95203837,MacIntel,objects,shape,3.0,['3'],[1.170000000000016],41.0,images/Lethal_Poison_Blue_Rhom.png,images/Safe_Extinguisher_Orange_Rhom.png,images/Lethal_Knife_Orange_Rect.png,127.897,129.944,129.944,130.494,0.55,0.15,1.9,Lethal,Poison,Blue,Rhom,Safe,Extinguisher,Orange,Rhom,Lethal,Knife,Orange,Rect,5.0,3,switch,1.0,3.0,1.170000000000016,3.0,1.170000000000016,1.0,0.0,1.170000000000016
sert_test_2,example_data_psychopy_sert_2.csv,,2025-12-22_14h24.46.803,sert_artemis_2025.2.3,2025.2.3,59.95203837,MacIntel,objects,lethality,2.0,['2'],[1.8940000000000055],42.0,images/Inert_Book_Blue_Oval.png,images/Lethal_Gun_1_Orange_Oval.png,images/Inert_Hat_Orange_Rhom.png,130.499,132.544,132.544,133.094,0.55,0.15,1.9,Inert,Book,Blue,Oval,Lethal,Gun_1,Orange,Oval,Inert,Hat,Orange,Rhom,5.0,3,switch,1.0,2.0,1.8940000000000055,2.0,1.8940000000000055,1.0,0.0,1.8940000000000055
sert_test_2,example_data_psychopy_sert_2.csv,,2025-12-22_14h24.46.803,sert_artemis_2025.2.3,2025.2.3,59.95203837,MacIntel,objects,color,1.0,['1'],[0.9560000000000173],43.0,images/Lethal_Gun_1_Orange_Rect.png,images/Lethal_Poison_Blue_Oval.png,images/Inert_Camera_Blue_Rect.png,133.098,135.144,135.144,135.494,0.35,0.15,1.9,Lethal,Gun_1,Orange,Rect,Lethal,Poison,Blue,Oval,Inert,Camera,Blue,Rect,5.0,3,switch,1.0,1.0,0.9560000000000173,1.0,0.9560000000000173,1.0,0.0,0.9560000000000173
sert_test_2,example_data_psychopy_sert_2.csv,,2025-12-22_14h24.46.803,sert_artemis_2025.2.3,2025.2.3,59.95203837,MacIntel,objects,lethality,1.0,['1'],[1.9569999999999936],44.0,images/Inert_Book_Orange_Rect.png,images/Lethal_Noose_1_Blue_Rect.png,images/Lethal_Razor_Orange_Rhom.png,135.498,137.545,137.545,137.895,0.35,0.15,1.9,Inert,Book,Orange,Rect,Lethal,Noose_1,Blue,Rect,Lethal,Razor,Orange,Rhom,5.0,3,switch,1.0,1.0,1.9569999999999936,1.0,1.9569999999999936,1.0,0.0,1.9569999999999936
sert_test_2,example_data_psychopy_sert_2.csv,,2025-12-22_14h24.46.803,sert_artemis_2025.2.3,2025.2.3,59.95203837,MacIntel,objects,shape,3.0,['3'],[1.924999999999983],45.0,images/Inert_Hairbrush_Blue_Rhom.png,images/Lethal_Razor_Orange_Rhom.png,images/Inert_Strawberry_Orange_Rect.png,137.897,139.944,139.945,140.494,0.55,0.15,1.9,Inert,Hairbrush,Blue,Rhom,Lethal,Razor,Orange,Rhom,Inert,Strawberry,Orange,Rect,5.0,3,switch,1.0,3.0,1.924999999999983,3.0,1.924999999999983,1.0,0.0,1.924999999999983
sert_test_2,example_data_psychopy_sert_2.csv,,2025-12-22_14h24.46.803,sert_artemis_2025.2.3,2025.2.3,59.95203837,MacIntel,objects,lethality,1.0,['3'],[1.7060000000000173],46.0,images/Lethal_Noose_1_Orange_Oval.png,images/Inert_Camera_Orange_Rect.png,images/Inert_Book_Blue_Oval.png,140.499,142.544,142.544,142.995,0.45,0.15,1.9,Lethal,Noose_1,Orange,Oval,Inert,Camera,Orange,Rect,Inert,Book,Blue,Oval,5.0,3,switch,1.0,3.0,1.7060000000000173,3.0,1.7060000000000173,0.0,,
sert_test_2,example_data_psychopy_sert_2.csv,,2025-12-22_14h24.46.803,sert_artemis_2025.2.3,2025.2.3,59.95203837,MacIntel,objects,color,3.0,['3'],[1.1059999999999945],47.0,images/Safe_LifeVest_Orange_Rhom.png,images/Lethal_Pills_Orange_Rect.png,images/Safe_SeatBelt_Blue_Rect.png,142.998,145.044,145.044,145.595,0.55,0.15,1.9,Safe,LifeVest,Orange,Rhom,Lethal,Pills,Orange,Rect,Safe,SeatBelt,Blue,Rect,5.0,3,switch,1.0,3.0,1.1059999999999945,3.0,1.1059999999999945,1.0,0.0,1.1059999999999945
sert_test_2,example_data_psychopy_sert_2.csv,,2025-12-22_14h24.46.803,sert_artemis_2025.2.3,2025.2.3,59.95203837,MacIntel,objects,lethality,3.0,['3'],[1.7450000000000045],48.0,images/Lethal_Gun_1_Blue_Oval.png,images/Lethal_Poison_Orange_Rhom.png,images/Inert_Camera_Blue_Rhom.png,145.598,147.645,147.645,148.194,0.55,0.15,1.9,Lethal,Gun_1,Blue,Oval,Lethal,Poison,Orange,Rhom,Inert,Camera,Blue,Rhom,5.0,3,switch,1.0,3.0,1.7450000000000045,3.0,1.7450000000000045,1.0,0.0,1.7450000000000045
sert_test_2,example_data_psychopy_sert_2.csv,,2025-12-22_14h24.46.803,sert_artemis_2025.2.3,2025.2.3,59.95203837,MacIntel,objects,shape,3.0,['3'],[1.454999999999984],49.0,images/Lethal_Pills_Blue_Rhom.png,images/Inert_Hat_Orange_Rhom.png,images/Inert_Strawberry_Blue_Rect.png,148.198,150.244,150.244,150.595,0.35,0.15,1.9,Lethal,Pills,Blue,Rhom,Inert,Hat,Orange,Rhom,Inert,Strawberry,Blue,Rect,5.0,3,switch,1.0,3.0,1.454999999999984,3.0,1.454999999999984,1.0,0.0,1.454999999999984
sert_test_2,example_data_psychopy_sert_2.csv,,2025-12-22_14h24.46.803,sert_artemis_2025.2.3,2025.2.3,59.95203837,MacIntel,objects,color,2.0,['2'],[1.1580000000000155],50.0,images/Lethal_Noose_1_Orange_Rect.png,images/Safe_Goggles_Blue_Rect.png,images/Safe_Buoy_Orange_Oval.png,150.598,152.645,152.645,152.995,0.35,0.15,1.9,Lethal,Noose_1,Orange,Rect,Safe,Goggles,Blue,Rect,Safe,Buoy,Orange,Oval,6.0,1,repeat,1.0,2.0,1.1580000000000155,2.0,1.1580000000000155,1.0,0.0,1.1580000000000155
sert_test_2,example_data_psychopy_sert_2.csv,,2025-12-22_14h24.46.803,sert_artemis_2025.2.3,2025.2.3,59.95203837,MacIntel,objects,color,3.0,['3'],[1.0840000000000032],51.0,images/Lethal_Knife_Blue_Rect.png,images/Inert_Camera_Blue_Rhom.png,images/Lethal_Noose_1_Orange_Rhom.png,152.998,155.048,155.048,155.495,0.45,0.15,1.9,Lethal,Knife,Blue,Rect,Inert,Camera,Blue,Rhom,Lethal,Noose_1,Orange,Rhom,6.0,1,repeat,1.0,3.0,1.0840000000000032,3.0,1.0840000000000032,1.0,0.0,1.0840000000000032
sert_test_2,example_data_psychopy_sert_2.csv,,2025-12-22_14h24.46.803,sert_artemis_2025.2.3,2025.2.3,59.95203837,MacIntel,objects,color,3.0,['3'],[1.09699999999998],52.0,images/Safe_LifeVest_Orange_Oval.png,images/Lethal_Razor_Orange_Rect.png,images/Safe_Extinguisher_Blue_Rect.png,155.501,157.545,157.546,157.995,0.45,0.15,1.9,Safe,LifeVest,Orange,Oval,Lethal,Razor,Orange,Rect,Safe,Extinguisher,Blue,Rect,6.0,1,repeat,1.0,3.0,1.09699999999998,3.0,1.09699999999998,1.0,0.0,1.09699999999998
sert_test_2,example_data_psychopy_sert_2.csv,,2025-12-22_14h24.46.803,sert_artemis_2025.2.3,2025.2.3,59.95203837,MacIntel,objects,color,3.0,['3'],[1.1980000000000075],53.0,images/Safe_Buoy_Blue_Rhom.png,images/Lethal_Pills_Blue_Rect.png,images/Safe_BearHug_Orange_Rect.png,157.998,160.045,160.045,160.595,0.55,0.15,1.9,Safe,Buoy,Blue,Rhom,Lethal,Pills,Blue,Rect,Safe,BearHug,Orange,Rect,6.0,1,repeat,1.0,3.0,1.1980000000000075,3.0,1.1980000000000075,1.0,0.0,1.1980000000000075
sert_test_2,example_data_psychopy_sert_2.csv,,2025-12-22_14h24.46.803,sert_artemis_2025.2.3,2025.2.3,59.95203837,MacIntel,objects,color,2.0,['2'],[1.0859999999999843],54.0,images/Safe_LifeVest_Orange_Oval.png,images/Safe_BearHug_Blue_Rhom.png,images/Lethal_Gun_1_Orange_Rhom.png,160.598,162.645,162.646,163.195,0.55,0.15,1.9,Safe,LifeVest,Orange,Oval,Safe,BearHug,Blue,Rhom,Lethal,Gun_1,Orange,Rhom,6.0,1,repeat,1.0,2.0,1.0859999999999843,2.0,1.0859999999999843,1.0,0.0,1.0859999999999843
sert_test_2,example_data_psychopy_sert_2.csv,,2025-12-22_14h24.46.803,sert_artemis_2025.2.3,2025.2.3,59.95203837,MacIntel,objects,color,2.0,['2'],[1.1529999999999916],55.0,images/Lethal_Knife_Blue_Rect.png,images/Safe_Extinguisher_Orange_Rect.png,images/Safe_LifeVest_Blue_Rhom.png,163.197,165.246,165.246,165.695,0.45,0.15,1.9,Lethal,Knife,Blue,Rect,Safe,Extinguisher,Orange,Rect,Safe,LifeVest,Blue,Rhom,6.0,1,repeat,1.0,2.0,1.1529999999999916,2.0,1.1529999999999916,1.0,0.0,1.1529999999999916
sert_test_2,example_data_psychopy_sert_2.csv,,2025-12-22_14h24.46.803,sert_artemis_2025.2.3,2025.2.3,59.95203837,MacIntel,objects,color,2.0,['2'],[0.9350000000000023],56.0,images/Lethal_Razor_Blue_Rect.png,images/Safe_Buoy_Orange_Rect.png,images/Safe_SeatBelt_Blue_Rhom.png,165.697,167.745,167.745,168.295,0.55,0.15,1.9,Lethal,Razor,Blue,Rect,Safe,Buoy,Orange,Rect,Safe,SeatBelt,Blue,Rhom,6.0,1,repeat,1.0,2.0,0.9350000000000023,2.0,0.9350000000000023,1.0,0.0,0.9350000000000023
sert_test_2,example_data_psychopy_sert_2.csv,,2025-12-22_14h24.46.803,sert_artemis_2025.2.3,2025.2.3,59.95203837,MacIntel,objects,color,3.0,['3'],[1.0339999999999918],57.0,images/Lethal_Pills_Orange_Rhom.png,images/Inert_Strawberry_Orange_Oval.png,images/Inert_Book_Blue_Rhom.png,168.298,170.346,170.346,170.695,0.35,0.15,1.9,Lethal,Pills,Orange,Rhom,Inert,Strawberry,Orange,Oval,Inert,Book,Blue,Rhom,6.0,1,repeat,1.0,3.0,1.0339999999999918,3.0,1.0339999999999918,1.0,0.0,1.0339999999999918
sert_test_2,example_data_psychopy_sert_2.csv,,2025-12-22_14h24.46.803,sert_artemis_2025.2.3,2025.2.3,59.95203837,MacIntel,objects,color,3.0,['3'],[0.9830000000000041],58.0,images/Safe_SeatBelt_Orange_Oval.png,images/Lethal_Gun_1_Orange_Rhom.png,images/Safe_Buoy_Blue_Rhom.png,170.697,172.746,172.746,173.195,0.45,0.15,1.9,Safe,SeatBelt,Orange,Oval,Lethal,Gun_1,Orange,Rhom,Safe,Buoy,Blue,Rhom,6.0,1,repeat,1.0,3.0,0.9830000000000041,3.0,0.9830000000000041,1.0,0.0,0.9830000000000041
sert_test_2,example_data_psychopy_sert_2.csv,,2025-12-22_14h24.46.803,sert_artemis_2025.2.3,2025.2.3,59.95203837,MacIntel,objects,color,3.0,['3'],[1.0669999999999789],59.0,images/Inert_Book_Blue_Rhom.png,images/Lethal_Knife_Blue_Rect.png,images/Inert_Hairbrush_Orange_Rect.png,173.198,175.245,175.245,175.796,0.55,0.15,1.9,Inert,Book,Blue,Rhom,Lethal,Knife,Blue,Rect,Inert,Hairbrush,Orange,Rect,6.0,1,repeat,1.0,3.0,1.0669999999999789,3.0,1.0669999999999789,1.0,0.0,1.0669999999999789
sert_test_2,example_data_psychopy_sert_2.csv,,2025-12-22_14h24.46.803,sert_artemis_2025.2.3,2025.2.3,59.95203837,MacIntel,objects,shape,3.0,['3'],[1.9159999999999968],60.0,images/Safe_LifeVest_Blue_Rhom.png,images/Lethal_Pills_Orange_Rhom.png,images/Safe_BearHug_Orange_Oval.png,175.801,177.846,177.846,178.395,0.55,0.15,1.9,Safe,LifeVest,Blue,Rhom,Lethal,Pills,Orange,Rhom,Safe,BearHug,Orange,Oval,7.0,3,switch,1.0,3.0,1.9159999999999968,3.0,1.9159999999999968,1.0,0.0,1.9159999999999968
sert_test_2,example_data_psychopy_sert_2.csv,,2025-12-22_14h24.46.803,sert_artemis_2025.2.3,2025.2.3,59.95203837,MacIntel,objects,shape,2.0,['2'],[1.4000000000000057],61.0,images/Safe_Extinguisher_Orange_Oval.png,images/Safe_LifeVest_Blue_Rect.png,images/Lethal_Knife_Blue_Oval.png,178.397,180.445,180.446,180.996,0.55,0.15,1.9,Safe,Extinguisher,Orange,Oval,Safe,LifeVest,Blue,Rect,Lethal,Knife,Blue,Oval,7.0,3,switch,1.0,2.0,1.4000000000000057,2.0,1.4000000000000057,1.0,0.0,1.4000000000000057
sert_test_2,example_data_psychopy_sert_2.csv,,2025-12-22_14h24.46.803,sert_artemis_2025.2.3,2025.2.3,59.95203837,MacIntel,objects,shape,2.0,['2'],[1.399000000000001],62.0,images/Inert_Hat_Blue_Rhom.png,images/Lethal_Noose_1_Blue_Rect.png,images/Lethal_Poison_Orange_Rhom.png,180.998,183.046,183.046,183.496,0.45,0.15,1.9,Inert,Hat,Blue,Rhom,Lethal,Noose_1,Blue,Rect,Lethal,Poison,Orange,Rhom,7.0,3,switch,1.0,2.0,1.399000000000001,2.0,1.399000000000001,1.0,0.0,1.399000000000001
sert_test_2,example_data_psychopy_sert_2.csv,,2025-12-22_14h24.46.803,sert_artemis_2025.2.3,2025.2.3,59.95203837,MacIntel,objects,color,2.0,['2'],[0.8569999999999993],63.0,images/Lethal_Razor_Orange_Rect.png,images/Inert_Camera_Blue_Rect.png,images/Inert_Book_Orange_Oval.png,183.498,185.546,185.546,185.996,0.45,0.15,1.9,Lethal,Razor,Orange,Rect,Inert,Camera,Blue,Rect,Inert,Book,Orange,Oval,7.0,3,switch,1.0,2.0,0.8569999999999993,2.0,0.8569999999999993,1.0,0.0,0.8569999999999993
sert_test_2,example_data_psychopy_sert_2.csv,,2025-12-22_14h24.46.803,sert_artemis_2025.2.3,2025.2.3,59.95203837,MacIntel,objects,color,2.0,['2'],[0.8340000000000032],64.0,images/Lethal_Noose_1_Orange_Rect.png,images/Safe_Buoy_Blue_Rect.png,images/Safe_Extinguisher_Orange_Oval.png,185.998,188.046,188.046,188.599,0.55,0.15,1.9,Lethal,Noose_1,Orange,Rect,Safe,Buoy,Blue,Rect,Safe,Extinguisher,Orange,Oval,7.0,3,switch,1.0,2.0,0.8340000000000032,2.0,0.8340000000000032,1.0,0.0,0.8340000000000032
sert_test_2,example_data_psychopy_sert_2.csv,,2025-12-22_14h24.46.803,sert_artemis_2025.2.3,2025.2.3,59.95203837,MacIntel,objects,color,3.0,['3'],[1.5320000000000107],65.0,images/Lethal_Pills_Blue_Oval.png,images/Safe_BearHug_Blue_Rhom.png,images/Safe_LifeVest_Orange_Oval.png,188.604,190.647,190.647,190.996,0.35,0.15,1.9,Lethal,Pills,Blue,Oval,Safe,BearHug,Blue,Rhom,Safe,LifeVest,Orange,Oval,7.0,3,switch,1.0,3.0,1.5320000000000107,3.0,1.5320000000000107,1.0,0.0,1.5320000000000107
sert_test_2,example_data_psychopy_sert_2.csv,,2025-12-22_14h24.46.803,sert_artemis_2025.2.3,2025.2.3,59.95203837,MacIntel,objects,lethality,1.0,['2'],[1.3460000000000036],66.0,images/Lethal_Pills_Blue_Rect.png,images/Inert_Camera_Orange_Rect.png,images/Inert_Orange_Blue_Oval.png,191.006,193.046,193.047,193.596,0.55,0.15,1.9,Lethal,Pills,Blue,Rect,Inert,Camera,Orange,Rect,Inert,Orange,Blue,Oval,7.0,3,switch,1.0,2.0,1.3460000000000036,2.0,1.3460000000000036,0.0,,
sert_test_2,example_data_psychopy_sert_2.csv,,2025-12-22_14h24.46.803,sert_artemis_2025.2.3,2025.2.3,59.95203837,MacIntel,objects,color,3.0,['3'],[1.2099999999999795],67.0,images/Safe_Buoy_Blue_Oval.png,images/Lethal_Gun_1_Blue_Rhom.png,images/Safe_Goggles_Orange_Rhom.png,193.601,195.647,195.647,196.096,0.45,0.15,1.9,Safe,Buoy,Blue,Oval,Lethal,Gun_1,Blue,Rhom,Safe,Goggles,Orange,Rhom,7.0,3,switch,1.0,3.0,1.2099999999999795,3.0,1.2099999999999795,1.0,0.0,1.2099999999999795
sert_test_2,example_data_psychopy_sert_2.csv,,2025-12-22_14h24.46.803,sert_artemis_2025.2.3,2025.2.3,59.95203837,MacIntel,objects,color,3.0,['3'],[1.3810000000000002],68.0,images/Inert_Orange_Blue_Rect.png,images/Lethal_Noose_1_Blue_Oval.png,images/Lethal_Gun_1_Orange_Rect.png,196.099,198.146,198.147,198.496,0.35,0.15,1.9,Inert,Orange,Blue,Rect,Lethal,Noose_1,Blue,Oval,Lethal,Gun_1,Orange,Rect,7.0,3,switch,1.0,3.0,1.3810000000000002,3.0,1.3810000000000002,1.0,0.0,1.3810000000000002
sert_test_2,example_data_psychopy_sert_2.csv,,2025-12-22_14h24.46.803,sert_artemis_2025.2.3,2025.2.3,59.95203837,MacIntel,objects,shape,3.0,['3'],[1.6059999999999945],69.0,images/Safe_Extinguisher_Blue_Rhom.png,images/Lethal_Razor_Orange_Rhom.png,images/Safe_Goggles_Orange_Rect.png,198.503,200.546,200.546,201.096,0.55,0.15,1.9,Safe,Extinguisher,Blue,Rhom,Lethal,Razor,Orange,Rhom,Safe,Goggles,Orange,Rect,7.0,3,switch,1.0,3.0,1.6059999999999945,3.0,1.6059999999999945,1.0,0.0,1.6059999999999945
sert_test_2,example_data_psychopy_sert_2.csv,,2025-12-22_14h24.46.803,sert_artemis_2025.2.3,2025.2.3,59.95203837,MacIntel,objects,shape,2.0,['2'],[1.6340000000000146],70.0,images/Lethal_Noose_1_Orange_Oval.png,images/Lethal_Pills_Orange_Rhom.png,images/Inert_Hairbrush_Blue_Oval.png,201.099,203.147,203.147,203.596,0.45,0.15,1.9,Lethal,Noose_1,Orange,Oval,Lethal,Pills,Orange,Rhom,Inert,Hairbrush,Blue,Oval,8.0,1,repeat,1.0,2.0,1.6340000000000146,2.0,1.6340000000000146,1.0,0.0,1.6340000000000146
sert_test_2,example_data_psychopy_sert_2.csv,,2025-12-22_14h24.46.803,sert_artemis_2025.2.3,2025.2.3,59.95203837,MacIntel,objects,shape,1.0,['1'],[1.9669999999999845],71.0,images/Safe_Buoy_Orange_Oval.png,images/Safe_BearHug_Blue_Rhom.png,images/Lethal_Noose_1_Orange_Rhom.png,203.598,205.647,205.647,206.196,0.55,0.15,1.9,Safe,Buoy,Orange,Oval,Safe,BearHug,Blue,Rhom,Lethal,Noose_1,Orange,Rhom,8.0,1,repeat,1.0,1.0,1.9669999999999845,1.0,1.9669999999999845,1.0,0.0,1.9669999999999845
sert_test_2,example_data_psychopy_sert_2.csv,,2025-12-22_14h24.46.803,sert_artemis_2025.2.3,2025.2.3,59.95203837,MacIntel,objects,shape,1.0,['1'],[1.3179999999999836],72.0,images/Safe_Goggles_Orange_Rhom.png,images/Lethal_Knife_Orange_Oval.png,images/Safe_Buoy_Blue_Oval.png,206.199,208.246,208.246,208.596,0.35,0.15,1.9,Safe,Goggles,Orange,Rhom,Lethal,Knife,Orange,Oval,Safe,Buoy,Blue,Oval,8.0,1,repeat,1.0,1.0,1.3179999999999836,1.0,1.3179999999999836,1.0,0.0,1.3179999999999836
sert_test_2,example_data_psychopy_sert_2.csv,,2025-12-22_14h24.46.803,sert_artemis_2025.2.3,2025.2.3,59.95203837,MacIntel,objects,shape,2.0,['2'],[1.5840000000000032],73.0,images/Inert_Hat_Blue_Rect.png,images/Inert_Strawberry_Orange_Rhom.png,images/Lethal_Poison_Orange_Rect.png,208.597,210.647,210.647,211.196,0.55,0.15,1.9,Inert,Hat,Blue,Rect,Inert,Strawberry,Orange,Rhom,Lethal,Poison,Orange,Rect,8.0,1,repeat,1.0,2.0,1.5840000000000032,2.0,1.5840000000000032,1.0,0.0,1.5840000000000032
sert_test_2,example_data_psychopy_sert_2.csv,,2025-12-22_14h24.46.803,sert_artemis_2025.2.3,2025.2.3,59.95203837,MacIntel,objects,shape,1.0,['1'],[1.275999999999982],74.0,images/Safe_Goggles_Orange_Oval.png,images/Lethal_Poison_Orange_Rect.png,images/Safe_SeatBelt_Blue_Rect.png,211.199,213.246,213.246,213.698,0.45,0.15,1.9,Safe,Goggles,Orange,Oval,Lethal,Poison,Orange,Rect,Safe,SeatBelt,Blue,Rect,8.0,1,repeat,1.0,1.0,1.275999999999982,1.0,1.275999999999982,1.0,0.0,1.275999999999982
sert_test_2,example_data_psychopy_sert_2.csv,,2025-12-22_14h24.46.803,sert_artemis_2025.2.3,2025.2.3,59.95203837,MacIntel,objects,shape,3.0,['3'],[1.3220000000000027],75.0,images/Lethal_Knife_Blue_Oval.png,images/Inert_Hairbrush_Orange_Oval.png,images/Inert_Camera_Blue_Rhom.png,213.699,215.746,215.747,216.096,0.35,0.15,1.9,Lethal,Knife,Blue,Oval,Inert,Hairbrush,Orange,Oval,Inert,Camera,Blue,Rhom,8.0,1,repeat,1.0,3.0,1.3220000000000027,3.0,1.3220000000000027,1.0,0.0,1.3220000000000027
sert_test_2,example_data_psychopy_sert_2.csv,,2025-12-22_14h24.46.803,sert_artemis_2025.2.3,2025.2.3,59.95203837,MacIntel,objects,shape,2.0,['2'],[1.4700000000000273],76.0,images/Inert_Strawberry_Orange_Oval.png,images/Lethal_Poison_Orange_Rect.png,images/Lethal_Razor_Blue_Oval.png,216.099,218.145,218.145,218.696,0.55,0.15,1.9,Inert,Strawberry,Orange,Oval,Lethal,Poison,Orange,Rect,Lethal,Razor,Blue,Oval,8.0,1,repeat,1.0,2.0,1.4700000000000273,2.0,1.4700000000000273,1.0,0.0,1.4700000000000273
sert_test_2,example_data_psychopy_sert_2.csv,,2025-12-22_14h24.46.803,sert_artemis_2025.2.3,2025.2.3,59.95203837,MacIntel,objects,shape,3.0,['3'],[1.3660000000000139],77.0,images/Safe_Buoy_Orange_Rect.png,images/Lethal_Knife_Blue_Rect.png,images/Safe_Extinguisher_Blue_Oval.png,218.7,220.747,220.747,221.097,0.35,0.15,1.9,Safe,Buoy,Orange,Rect,Lethal,Knife,Blue,Rect,Safe,Extinguisher,Blue,Oval,8.0,1,repeat,1.0,3.0,1.3660000000000139,3.0,1.3660000000000139,1.0,0.0,1.3660000000000139
sert_test_2,example_data_psychopy_sert_2.csv,,2025-12-22_14h24.46.803,sert_artemis_2025.2.3,2025.2.3,59.95203837,MacIntel,objects,shape,3.0,['3'],[1.4720000000000084],78.0,images/Lethal_Pills_Blue_Rect.png,images/Safe_SeatBelt_Orange_Rect.png,images/Safe_Goggles_Blue_Rhom.png,221.099,223.149,223.151,223.697,0.55,0.15,1.9,Lethal,Pills,Blue,Rect,Safe,SeatBelt,Orange,Rect,Safe,Goggles,Blue,Rhom,8.0,1,repeat,1.0,3.0,1.4720000000000084,3.0,1.4720000000000084,1.0,0.0,1.4720000000000084
sert_test_2,example_data_psychopy_sert_2.csv,,2025-12-22_14h24.46.803,sert_artemis_2025.2.3,2025.2.3,59.95203837,MacIntel,objects,shape,1.0,['1'],[1.3149999999999977],79.0,images/Safe_SeatBelt_Orange_Rhom.png,images/Lethal_Noose_1_Orange_Oval.png,images/Lethal_Knife_Blue_Oval.png,223.704,225.75,225.75,226.297,0.55,0.15,1.9,Safe,SeatBelt,Orange,Rhom,Lethal,Noose_1,Orange,Oval,Lethal,Knife,Blue,Oval,8.0,1,repeat,1.0,1.0,1.3149999999999977,1.0,1.3149999999999977,1.0,0.0,1.3149999999999977
sert_test_2,example_data_psychopy_sert_2.csv,,2025-12-22_14h24.46.803,sert_artemis_2025.2.3,2025.2.3,59.95203837,MacIntel,objects,shape,3.0,['3'],[1.0349999999999966],80.0,images/Safe_Extinguisher_Blue_Rhom.png,images/Lethal_Poison_Orange_Rhom.png,images/Safe_SeatBelt_Orange_Oval.png,226.301,228.347,228.347,228.797,0.45,0.15,1.9,Safe,Extinguisher,Blue,Rhom,Lethal,Poison,Orange,Rhom,Safe,SeatBelt,Orange,Oval,9.0,3,switch,1.0,3.0,1.0349999999999966,3.0,1.0349999999999966,1.0,0.0,1.0349999999999966
sert_test_2,example_data_psychopy_sert_2.csv,,2025-12-22_14h24.46.803,sert_artemis_2025.2.3,2025.2.3,59.95203837,MacIntel,objects,shape,2.0,['2'],[1.4659999999999798],81.0,images/Lethal_Razor_Orange_Oval.png,images/Safe_Buoy_Orange_Rect.png,images/Safe_BearHug_Blue_Oval.png,228.799,230.847,230.848,231.197,0.35,0.15,1.9,Lethal,Razor,Orange,Oval,Safe,Buoy,Orange,Rect,Safe,BearHug,Blue,Oval,9.0,3,switch,1.0,2.0,1.4659999999999798,2.0,1.4659999999999798,1.0,0.0,1.4659999999999798
sert_test_2,example_data_psychopy_sert_2.csv,,2025-12-22_14h24.46.803,sert_artemis_2025.2.3,2025.2.3,59.95203837,MacIntel,objects,color,3.0,['3'],[1.252999999999986],82.0,images/Lethal_Noose_1_Orange_Rhom.png,images/Safe_Extinguisher_Orange_Rect.png,images/Safe_Goggles_Blue_Rhom.png,231.204,233.247,233.247,233.698,0.45,0.15,1.9,Lethal,Noose_1,Orange,Rhom,Safe,Extinguisher,Orange,Rect,Safe,Goggles,Blue,Rhom,9.0,3,switch,1.0,3.0,1.252999999999986,3.0,1.252999999999986,1.0,0.0,1.252999999999986
sert_test_2,example_data_psychopy_sert_2.csv,,2025-12-22_14h24.46.803,sert_artemis_2025.2.3,2025.2.3,59.95203837,MacIntel,objects,color,2.0,['1'],[1.3019999999999925],83.0,images/Inert_Orange_Blue_Oval.png,images/Inert_Book_Orange_Rhom.png,images/Lethal_Poison_Blue_Rhom.png,233.699,235.747,235.747,236.197,0.45,0.15,1.9,Inert,Orange,Blue,Oval,Inert,Book,Orange,Rhom,Lethal,Poison,Blue,Rhom,9.0,3,switch,1.0,1.0,1.3019999999999925,1.0,1.3019999999999925,0.0,,
sert_test_2,example_data_psychopy_sert_2.csv,,2025-12-22_14h24.46.803,sert_artemis_2025.2.3,2025.2.3,59.95203837,MacIntel,objects,lethality,3.0,['1'],[1.7469999999999857],84.0,images/Inert_Hairbrush_Blue_Rect.png,images/Inert_Camera_Orange_Oval.png,images/Lethal_Pills_Blue_Oval.png,236.201,238.247,238.247,238.697,0.45,0.15,1.9,Inert,Hairbrush,Blue,Rect,Inert,Camera,Orange,Oval,Lethal,Pills,Blue,Oval,9.0,3,switch,1.0,1.0,1.7469999999999857,1.0,1.7469999999999857,0.0,,
sert_test_2,example_data_psychopy_sert_2.csv,,2025-12-22_14h24.46.803,sert_artemis_2025.2.3,2025.2.3,59.95203837,MacIntel,objects,lethality,3.0,['1'],[1.8909999999999627],85.0,images/Lethal_Gun_1_Blue_Rect.png,images/Lethal_Pills_Orange_Rhom.png,images/Inert_Hat_Orange_Rect.png,238.7,240.747,240.748,241.097,0.35,0.15,1.9,Lethal,Gun_1,Blue,Rect,Lethal,Pills,Orange,Rhom,Inert,Hat,Orange,Rect,9.0,3,switch,1.0,1.0,1.8909999999999627,1.0,1.8909999999999627,0.0,,
sert_test_2,example_data_psychopy_sert_2.csv,,2025-12-22_14h24.46.803,sert_artemis_2025.2.3,2025.2.3,59.95203837,MacIntel,objects,lethality,2.0,['3'],[1.3079999999999927],86.0,images/Lethal_Pills_Blue_Oval.png,images/Inert_Orange_Orange_Oval.png,images/Lethal_Knife_Orange_Rhom.png,241.098,243.148,243.148,243.597,0.45,0.15,1.9,Lethal,Pills,Blue,Oval,Inert,Orange,Orange,Oval,Lethal,Knife,Orange,Rhom,9.0,3,switch,1.0,3.0,1.3079999999999927,3.0,1.3079999999999927,0.0,,
sert_test_2,example_data_psychopy_sert_2.csv,,2025-12-22_14h24.46.803,sert_artemis_2025.2.3,2025.2.3,59.95203837,MacIntel,objects,shape,2.0,,,87.0,images/Safe_Buoy_Blue_Rect.png,images/Safe_LifeVest_Orange_Oval.png,images/Lethal_Poison_Orange_Rect.png,243.598,245.647,245.647,246.097,0.45,0.15,1.9,Safe,Buoy,Blue,Rect,Safe,LifeVest,Orange,Oval,Lethal,Poison,Orange,Rect,9.0,3,switch,1.0,,,,,0.0,,
sert_test_2,example_data_psychopy_sert_2.csv,,2025-12-22_14h24.46.803,sert_artemis_2025.2.3,2025.2.3,59.95203837,MacIntel,objects,color,2.0,['2'],[1.524000000000001],88.0,images/Lethal_Gun_1_Blue_Rect.png,images/Inert_Strawberry_Orange_Oval.png,images/Lethal_Noose_1_Blue_Rhom.png,246.101,248.147,248.148,248.697,0.55,0.15,1.9,Lethal,Gun_1,Blue,Rect,Inert,Strawberry,Orange,Oval,Lethal,Noose_1,Blue,Rhom,9.0,3,switch,1.0,2.0,1.524000000000001,2.0,1.524000000000001,1.0,0.0,1.524000000000001
sert_test_2,example_data_psychopy_sert_2.csv,,2025-12-22_14h24.46.803,sert_artemis_2025.2.3,2025.2.3,59.95203837,MacIntel,objects,color,2.0,['2'],[1.5349999999999682],89.0,images/Safe_Buoy_Orange_Rhom.png,images/Safe_SeatBelt_Blue_Oval.png,images/Lethal_Pills_Orange_Oval.png,248.698,250.747,250.748,251.097,0.35,0.15,1.9,Safe,Buoy,Orange,Rhom,Safe,SeatBelt,Blue,Oval,Lethal,Pills,Orange,Oval,9.0,3,switch,1.0,2.0,1.5349999999999682,2.0,1.5349999999999682,1.0,0.0,1.5349999999999682
sert_test_2,example_data_psychopy_sert_2.csv,,2025-12-22_14h24.46.803,sert_artemis_2025.2.3,2025.2.3,59.95203837,MacIntel,objects,lethality,1.0,['3'],[1.6920000000000073],90.0,images/Lethal_Knife_Blue_Rhom.png,images/Inert_Camera_Orange_Rhom.png,images/Inert_Orange_Blue_Rect.png,251.1,253.148,253.148,253.598,0.45,0.15,1.9,Lethal,Knife,Blue,Rhom,Inert,Camera,Orange,Rhom,Inert,Orange,Blue,Rect,10.0,1,repeat,1.0,3.0,1.6920000000000073,3.0,1.6920000000000073,0.0,,
sert_test_2,example_data_psychopy_sert_2.csv,,2025-12-22_14h24.46.803,sert_artemis_2025.2.3,2025.2.3,59.95203837,MacIntel,objects,lethality,3.0,['3'],[1.502999999999986],91.0,images/Safe_LifeVest_Orange_Rhom.png,images/Safe_BearHug_Blue_Oval.png,images/Lethal_Razor_Orange_Oval.png,253.6,255.648,255.649,256.198,0.55,0.15,1.9,Safe,LifeVest,Orange,Rhom,Safe,BearHug,Blue,Oval,Lethal,Razor,Orange,Oval,10.0,1,repeat,1.0,3.0,1.502999999999986,3.0,1.502999999999986,1.0,0.0,1.502999999999986
sert_test_2,example_data_psychopy_sert_2.csv,,2025-12-22_14h24.46.803,sert_artemis_2025.2.3,2025.2.3,59.95203837,MacIntel,objects,lethality,2.0,['3'],[1.4630000000000223],92.0,images/Inert_Hat_Orange_Oval.png,images/Lethal_Poison_Blue_Oval.png,images/Inert_Hairbrush_Blue_Rhom.png,256.204,258.248,258.248,258.598,0.35,0.15,1.9,Inert,Hat,Orange,Oval,Lethal,Poison,Blue,Oval,Inert,Hairbrush,Blue,Rhom,10.0,1,repeat,1.0,3.0,1.4630000000000223,3.0,1.4630000000000223,0.0,,
sert_test_2,example_data_psychopy_sert_2.csv,,2025-12-22_14h24.46.803,sert_artemis_2025.2.3,2025.2.3,59.95203837,MacIntel,objects,lethality,1.0,['1'],[1.6170000000000186],93.0,images/Lethal_Razor_Orange_Rhom.png,images/Inert_Camera_Blue_Rhom.png,images/Inert_Strawberry_Orange_Rect.png,258.601,260.648,260.649,260.998,0.35,0.15,1.9,Lethal,Razor,Orange,Rhom,Inert,Camera,Blue,Rhom,Inert,Strawberry,Orange,Rect,10.0,1,repeat,1.0,1.0,1.6170000000000186,1.0,1.6170000000000186,1.0,0.0,1.6170000000000186
sert_test_2,example_data_psychopy_sert_2.csv,,2025-12-22_14h24.46.803,sert_artemis_2025.2.3,2025.2.3,59.95203837,MacIntel,objects,lethality,2.0,['2'],[1.6190000000000282],94.0,images/Safe_SeatBelt_Blue_Oval.png,images/Lethal_Knife_Orange_Oval.png,images/Safe_Goggles_Orange_Rect.png,261.001,263.048,263.048,263.403,0.35,0.15,1.9,Safe,SeatBelt,Blue,Oval,Lethal,Knife,Orange,Oval,Safe,Goggles,Orange,Rect,10.0,1,repeat,1.0,2.0,1.6190000000000282,2.0,1.6190000000000282,1.0,0.0,1.6190000000000282
sert_test_2,example_data_psychopy_sert_2.csv,,2025-12-22_14h24.46.803,sert_artemis_2025.2.3,2025.2.3,59.95203837,MacIntel,objects,lethality,1.0,['1'],[1.7139999999999986],95.0,images/Lethal_Noose_1_Blue_Rect.png,images/Safe_LifeVest_Orange_Rect.png,images/Safe_Extinguisher_Blue_Oval.png,263.404,265.449,265.449,265.998,0.55,0.15,1.9,Lethal,Noose_1,Blue,Rect,Safe,LifeVest,Orange,Rect,Safe,Extinguisher,Blue,Oval,10.0,1,repeat,1.0,1.0,1.7139999999999986,1.0,1.7139999999999986,1.0,0.0,1.7139999999999986
sert_test_2,example_data_psychopy_sert_2.csv,,2025-12-22_14h24.46.803,sert_artemis_2025.2.3,2025.2.3,59.95203837,MacIntel,objects,lethality,1.0,['1'],[1.5610000000000355],96.0,images/Lethal_Razor_Orange_Rect.png,images/Inert_Book_Blue_Rect.png,images/Inert_Orange_Orange_Rhom.png,266.001,268.048,268.048,268.499,0.45,0.15,1.9,Lethal,Razor,Orange,Rect,Inert,Book,Blue,Rect,Inert,Orange,Orange,Rhom,10.0,1,repeat,1.0,1.0,1.5610000000000355,1.0,1.5610000000000355,1.0,0.0,1.5610000000000355
sert_test_2,example_data_psychopy_sert_2.csv,,2025-12-22_14h24.46.803,sert_artemis_2025.2.3,2025.2.3,59.95203837,MacIntel,objects,lethality,1.0,['1'],[1.4329999999999927],97.0,images/Lethal_Poison_Blue_Rhom.png,images/Safe_Buoy_Orange_Rhom.png,images/Safe_LifeVest_Blue_Oval.png,268.505,270.554,270.554,270.998,0.45,0.15,1.9,Lethal,Poison,Blue,Rhom,Safe,Buoy,Orange,Rhom,Safe,LifeVest,Blue,Oval,10.0,1,repeat,1.0,1.0,1.4329999999999927,1.0,1.4329999999999927,1.0,0.0,1.4329999999999927
sert_test_2,example_data_psychopy_sert_2.csv,,2025-12-22_14h24.46.803,sert_artemis_2025.2.3,2025.2.3,59.95203837,MacIntel,objects,lethality,2.0,['2'],[1.7900000000000205],98.0,images/Inert_Hairbrush_Blue_Oval.png,images/Lethal_Noose_1_Orange_Oval.png,images/Inert_Book_Orange_Rect.png,271.002,273.048,273.048,273.498,0.45,0.15,1.9,Inert,Hairbrush,Blue,Oval,Lethal,Noose_1,Orange,Oval,Inert,Book,Orange,Rect,10.0,1,repeat,1.0,2.0,1.7900000000000205,2.0,1.7900000000000205,1.0,0.0,1.7900000000000205
sert_test_2,example_data_psychopy_sert_2.csv,,2025-12-22_14h24.46.803,sert_artemis_2025.2.3,2025.2.3,59.95203837,MacIntel,objects,lethality,1.0,['1'],[1.3830000000000382],99.0,images/Lethal_Knife_Orange_Rect.png,images/Safe_BearHug_Blue_Rect.png,images/Safe_Goggles_Orange_Oval.png,273.502,275.548,275.548,275.898,0.35,0.15,1.9,Lethal,Knife,Orange,Rect,Safe,BearHug,Blue,Rect,Safe,Goggles,Orange,Oval,10.0,1,repeat,1.0,1.0,1.3830000000000382,1.0,1.3830000000000382,1.0,0.0,1.3830000000000382
sert_test_2,example_data_psychopy_sert_2.csv,,2025-12-22_14h24.46.803,sert_artemis_2025.2.3,2025.2.3,59.95203837,MacIntel,objects,lethality,2.0,['2'],[1.25],100.0,images/Safe_SeatBelt_Blue_Rect.png,images/Lethal_Razor_Blue_Rhom.png,images/Safe_Buoy_Orange_Rhom.png,275.901,277.948,277.948,278.398,0.45,0.15,1.9,Safe,SeatBelt,Blue,Rect,Lethal,Razor,Blue,Rhom,Safe,Buoy,Orange,Rhom,11.0,3,switch,1.0,2.0,1.25,2.0,1.25,1.0,0.0,1.25
sert_test_2,example_data_psychopy_sert_2.csv,,2025-12-22_14h24.46.803,sert_artemis_2025.2.3,2025.2.3,59.95203837,MacIntel,objects,lethality,1.0,['1'],[1.0989999999999895],101.0,images/Lethal_Noose_1_Orange_Rect.png,images/Safe_Buoy_Blue_Rect.png,images/Safe_BearHug_Orange_Oval.png,278.401,280.448,280.448,280.799,0.35,0.15,1.9,Lethal,Noose_1,Orange,Rect,Safe,Buoy,Blue,Rect,Safe,BearHug,Orange,Oval,11.0,3,switch,1.0,1.0,1.0989999999999895,1.0,1.0989999999999895,1.0,0.0,1.0989999999999895
sert_test_2,example_data_psychopy_sert_2.csv,,2025-12-22_14h24.46.803,sert_artemis_2025.2.3,2025.2.3,59.95203837,MacIntel,objects,lethality,3.0,['3'],[1.3149999999999977],102.0,images/Lethal_Gun_1_Blue_Rect.png,images/Lethal_Noose_1_Orange_Rhom.png,images/Safe_Goggles_Orange_Rect.png,280.801,282.849,282.849,283.198,0.35,0.15,1.9,Lethal,Gun_1,Blue,Rect,Lethal,Noose_1,Orange,Rhom,Safe,Goggles,Orange,Rect,11.0,3,switch,1.0,3.0,1.3149999999999977,3.0,1.3149999999999977,1.0,0.0,1.3149999999999977
sert_test_2,example_data_psychopy_sert_2.csv,,2025-12-22_14h24.46.803,sert_artemis_2025.2.3,2025.2.3,59.95203837,MacIntel,objects,color,1.0,['1'],[1.2719999999999914],103.0,images/Lethal_Gun_1_Blue_Oval.png,images/Safe_Extinguisher_Orange_Oval.png,images/Lethal_Pills_Orange_Rhom.png,283.204,285.249,285.249,285.799,0.55,0.15,1.9,Lethal,Gun_1,Blue,Oval,Safe,Extinguisher,Orange,Oval,Lethal,Pills,Orange,Rhom,11.0,3,switch,1.0,1.0,1.2719999999999914,1.0,1.2719999999999914,1.0,0.0,1.2719999999999914
