id,filename,session,datetime,exp_name,software_version,framerate,os,charity_name,staff_name,trial,benefactor,prime,probe_key,pre_key,post_probe_key,feedback_correct,feedback_incorrect,feedback_spoiled,reward_type,amount,amount_label,social,social_label,correct,phase,block,probe_response,probe_duration,self_earnings,charity_earnings,probe_rt
test1,test1_smid.csv,0,2020-01-01_00h00.00.000,SMID,2025.2.4,43.47826087,iPhone,NAMI,Lila,0.0,YOURSELF,images/WinSmall.jpg,,,,Correct! You win $0.20 for YOURSELF,Miss! You do not win $0.20 for YOURSELF,You responded too early. You do not win $0.20 for YOURSELF,gain,0.2,small,False,self,True,practice,practice,,,,,
test1,test1_smid.csv,0,2020-01-01_00h00.00.000,SMID,2025.2.4,43.47826087,iPhone,NAMI,Lila,1.0,NAME,images/WinSmall.jpg,,,,Correct! You win $0.20 for NAME,Miss! You do not win $0.20 for NAME,You responded too early. You do not win $0.20 for NAME,gain,0.2,small,True,charity,True,practice,practice,,,,,
test1,test1_smid.csv,0,2020-01-01_00h00.00.000,SMID,2025.2.4,43.47826087,iPhone,NAMI,Lila,2.0,YOURSELF,images/LoseBig.jpg,,,,Correct! You keep $5 for YOURSELF,Miss! You lose $5 for YOURSELF,You responded too early. You lose $5 for YOURSELF,lose,5.0,big,False,self,True,practice,practice,,,,,
test1,test1_smid.csv,0,2020-01-01_00h00.00.000,SMID,2025.2.4,43.47826087,iPhone,NAMI,Lila,0.0,YOURSELF,images/WinSmall.jpg,,,,Correct! You win $0.20 for YOURSELF,Miss! You do not win $0.20 for YOURSELF,You responded too early. You do not win $0.20 for YOURSELF,gain,0.2,small,False,self,True,practice,practice,,,,,
test1,test1_smid.csv,0,2020-01-01_00h00.00.000,SMID,2025.2.4,43.47826087,iPhone,NAMI,Lila,1.0,NAME,images/WinSmall.jpg,,,,Correct! You win $0.20 for NAME,Miss! You do not win $0.20 for NAME,You responded too early. You do not win $0.20 for NAME,gain,0.2,small,True,charity,True,practice,practice,,,,,
test1,test1_smid.csv,0,2020-01-01_00h00.00.000,SMID,2025.2.4,43.47826087,iPhone,NAMI,Lila,2.0,YOURSELF,images/LoseBig.jpg,,,,Correct! You keep $5 for YOURSELF,Miss! You lose $5 for YOURSELF,You responded too early. You lose $5 for YOURSELF,lose,5.0,big,False,self,True,practice,practice,,,,,
test1,test1_smid.csv,0,2020-01-01_00h00.00.000,SMID,2025.2.4,43.47826087,iPhone,NAMI,Lila,0.0,NAME,images/WinBig.jpg,,,,Correct! You win $5 for NAME,Miss! You do not win $5 for NAME,You responded too early. You do not win $5 for NAME,gain,5.0,big,True,charity,False,real,real,False,0.3,0.0,0.0,
test1,test1_smid.csv,0,2020-01-01_00h00.00.000,SMID,2025.2.4,43.47826087,iPhone,NAMI,Lila,1.0,YOURSELF,images/WinBig.jpg,,,,Correct! You win $5 for YOURSELF,Miss! You do not win $5 for YOURSELF,You responded too early. You do not win $5 for YOURSELF,gain,5.0,big,False,self,False,real,real,False,0.3,0.0,0.0,
test1,test1_smid.csv,0,2020-01-01_00h00.00.000,SMID,2025.2.4,43.47826087,iPhone,NAMI,Lila,2.0,NAME,images/WinSmall.jpg,,,,Correct! You win $0.20 for NAME,Miss! You do not win $0.20 for NAME,You responded too early. You do not win $0.20 for NAME,gain,0.2,small,True,charity,False,real,real,False,0.3,0.0,0.0,
test1,test1_smid.csv,0,2020-01-01_00h00.00.000,SMID,2025.2.4,43.47826087,iPhone,NAMI,Lila,3.0,YOURSELF,images/WinBig.jpg,,,,Correct! You win $5 for YOURSELF,Miss! You do not win $5 for YOURSELF,You responded too early. You do not win $5 for YOURSELF,gain,5.0,big,False,self,True,real,real,True,0.381361078,5.0,0.0,
test1,test1_smid.csv,0,2020-01-01_00h00.00.000,SMID,2025.2.4,43.47826087,iPhone,NAMI,Lila,4.0,YOURSELF,images/Neutral.jpg,,,,Correct! You did not win or lose money for YOURSELF,Miss! You did not win or lose money for YOURSELF,You responded too early. You did not win or lose money for YOURSELF,neither,0.0,zero,False,self,False,real,real,False,0.381361078,5.0,0.0,
test2,test2_smid.csv,0,2020-01-01_00h00.00.000,SMID,2025.2.4,60.60606061,Win32,DBSA,Amber,0.0,YOURSELF,images/WinSmall.jpg,n,,,Correct! You win $0.20 for YOURSELF,Miss! You do not win $0.20 for YOURSELF,You responded too early. You do not win $0.20 for YOURSELF,gain,0.2,small,False,self,True,practice,practice,,,,,1.8764000000953729
test2,test2_smid.csv,0,2020-01-01_00h00.00.000,SMID,2025.2.4,60.60606061,Win32,DBSA,Amber,1.0,NAME,images/WinSmall.jpg,,n,,Correct! You win $0.20 for NAME,Miss! You do not win $0.20 for NAME,You responded too early. You do not win $0.20 for NAME,gain,0.2,small,True,charity,False,practice,practice,,,,,
test2,test2_smid.csv,0,2020-01-01_00h00.00.000,SMID,2025.2.4,60.60606061,Win32,DBSA,Amber,2.0,YOURSELF,images/LoseBig.jpg,n,,,Correct! You keep $5 for YOURSELF,Miss! You lose $5 for YOURSELF,You responded too early. You lose $5 for YOURSELF,lose,5.0,big,False,self,True,practice,practice,,,,,0.5842000000477015
test2,test2_smid.csv,0,2020-01-01_00h00.00.000,SMID,2025.2.4,60.60606061,Win32,DBSA,Amber,0.0,YOURSELF,images/WinSmall.jpg,n,,,Correct! You win $0.20 for YOURSELF,Miss! You do not win $0.20 for YOURSELF,You responded too early. You do not win $0.20 for YOURSELF,gain,0.2,small,False,self,True,practice,practice,,,,,0.41929999995230105
test2,test2_smid.csv,0,2020-01-01_00h00.00.000,SMID,2025.2.4,60.60606061,Win32,DBSA,Amber,1.0,NAME,images/WinSmall.jpg,n,,,Correct! You win $0.20 for NAME,Miss! You do not win $0.20 for NAME,You responded too early. You do not win $0.20 for NAME,gain,0.2,small,True,charity,True,practice,practice,,,,,0.607599999904636
test2,test2_smid.csv,0,2020-01-01_00h00.00.000,SMID,2025.2.4,60.60606061,Win32,DBSA,Amber,2.0,YOURSELF,images/LoseBig.jpg,n,,,Correct! You keep $5 for YOURSELF,Miss! You lose $5 for YOURSELF,You responded too early. You lose $5 for YOURSELF,lose,5.0,big,False,self,True,practice,practice,,,,,0.44249999999999545
test2,test2_smid.csv,0,2020-01-01_00h00.00.000,SMID,2025.2.4,60.60606061,Win32,DBSA,Amber,0.0,NAME,images/WinBig.jpg,,,n,Correct! You win $5 for NAME,Miss! You do not win $5 for NAME,You responded too early. You do not win $5 for NAME,gain,5.0,big,True,charity,False,real,real,False,0.3,0.0,0.0,
test2,test2_smid.csv,0,2020-01-01_00h00.00.000,SMID,2025.2.4,60.60606061,Win32,DBSA,Amber,1.0,YOURSELF,images/WinBig.jpg,,,n,Correct! You win $5 for YOURSELF,Miss! You do not win $5 for YOURSELF,You responded too early. You do not win $5 for YOURSELF,gain,5.0,big,False,self,False,real,real,False,0.3,0.0,0.0,
test2,test2_smid.csv,0,2020-01-01_00h00.00.000,SMID,2025.2.4,60.60606061,Win32,DBSA,Amber,2.0,NAME,images/WinSmall.jpg,,,,Correct! You win $0.20 for NAME,Miss! You do not win $0.20 for NAME,You responded too early. You do not win $0.20 for NAME,gain,0.2,small,True,charity,False,real,real,False,0.3,0.0,0.0,
test2,test2_smid.csv,0,2020-01-01_00h00.00.000,SMID,2025.2.4,60.60606061,Win32,DBSA,Amber,3.0,YOURSELF,images/WinBig.jpg,n,,,Correct! You win $5 for YOURSELF,Miss! You do not win $5 for YOURSELF,You responded too early. You do not win $5 for YOURSELF,gain,5.0,big,False,self,True,real,real,True,0.3225,5.0,0.0,0.2625999999046371
test2,test2_smid.csv,0,2020-01-01_00h00.00.000,SMID,2025.2.4,60.60606061,Win32,DBSA,Amber,4.0,YOURSELF,images/Neutral.jpg,,n,,Correct! You did not win or lose money for YOURSELF,Miss! You did not win or lose money for YOURSELF,You responded too early. You did not win or lose money for YOURSELF,neither,0.0,zero,False,self,True,real,real,,,5.0,0.0,
test3,test3_smid.csv,1,2020-01-01_12h00.00.000,SMID,2025.2.4,121.9512195,Win32,DBSA,Amber,0.0,YOURSELF,images/WinSmall.jpg,n,,,Correct! You win $0.20 for YOURSELF,Miss! You do not win $0.20 for YOURSELF,You responded too early. You do not win $0.20 for YOURSELF,gain,0.2,small,False,self,True,practice,practice,,,,,0.4383999998569479
test3,test3_smid.csv,1,2020-01-01_12h00.00.000,SMID,2025.2.4,121.9512195,Win32,DBSA,Amber,1.0,NAME,images/WinSmall.jpg,n,,,Correct! You win $0.20 for NAME,Miss! You do not win $0.20 for NAME,You responded too early. You do not win $0.20 for NAME,gain,0.2,small,True,charity,True,practice,practice,,,,,0.2452000000476815
test3,test3_smid.csv,1,2020-01-01_12h00.00.000,SMID,2025.2.4,121.9512195,Win32,DBSA,Amber,2.0,YOURSELF,images/LoseBig.jpg,n,,,Correct! You keep $5 for YOURSELF,Miss! You lose $5 for YOURSELF,You responded too early. You lose $5 for YOURSELF,lose,5.0,big,False,self,True,practice,practice,,,,,0.2787999999523123
test3,test3_smid.csv,1,2020-01-01_12h00.00.000,SMID,2025.2.4,121.9512195,Win32,DBSA,Amber,0.0,YOURSELF,images/LoseSmall.jpg,n,,,Correct! You keep $0.20 for YOURSELF,Miss! You lose $0.20 for YOURSELF,You responded too early. You lose $0.20 for YOURSELF,lose,0.2,small,False,self,True,real,real,True,0.3,0.0,0.0,0.2682999999523048
test3,test3_smid.csv,1,2020-01-01_12h00.00.000,SMID,2025.2.4,121.9512195,Win32,DBSA,Amber,1.0,NAME,images/LoseBig.jpg,,,n,Correct! You keep $5 for NAME,Miss! You lost $5 for NAME,You responded too early. You lost $5 for NAME,lose,5.0,big,True,charity,False,real,real,False,0.3,0.0,-5.0,
test3,test3_smid.csv,1,2020-01-01_12h00.00.000,SMID,2025.2.4,121.9512195,Win32,DBSA,Amber,2.0,YOURSELF,images/LoseSmall.jpg,n,,,Correct! You keep $0.20 for YOURSELF,Miss! You lose $0.20 for YOURSELF,You responded too early. You lose $0.20 for YOURSELF,lose,0.2,small,False,self,True,real,real,True,0.3,0.0,-5.0,0.22920000004768326
test3,test3_smid.csv,1,2020-01-01_12h00.00.000,SMID,2025.2.4,121.9512195,Win32,DBSA,Amber,3.0,YOURSELF,images/LoseBig.jpg,,,n,Correct! You keep $5 for YOURSELF,Miss! You lose $5 for YOURSELF,You responded too early. You lose $5 for YOURSELF,lose,5.0,big,False,self,False,real,real,False,0.3,-5.0,-5.0,
test3,test3_smid.csv,1,2020-01-01_12h00.00.000,SMID,2025.2.4,121.9512195,Win32,DBSA,Amber,4.0,NAME,images/Neutral.jpg,n,,,Correct! You did not win or lose money for NAME,Miss! You did not win or lose money for NAME,You responded too early. You did not win or lose money for NAME,neither,0.0,zero,True,charity,True,real,real,True,0.3,-5.0,-5.0,0.23220000004768337
test3,test3_smid.csv,1,2020-01-01_12h00.00.000,SMID,2025.2.4,121.9512195,Win32,DBSA,Amber,5.0,NAME,images/WinBig.jpg,n,,,Correct! You win $5 for NAME,Miss! You do not win $5 for NAME,You responded too early. You do not win $5 for NAME,gain,5.0,big,True,charity,True,real,real,True,0.3,-5.0,0.0,0.18470000004768394
test3,test3_smid.csv,1,2020-01-01_12h00.00.000,SMID,2025.2.4,121.9512195,Win32,DBSA,Amber,6.0,NAME,images/Neutral.jpg,n,,,Correct! You did not win or lose money for NAME,Miss! You did not win or lose money for NAME,You responded too early. You did not win or lose money for NAME,neither,0.0,zero,True,charity,True,real,real,True,0.3,-5.0,0.0,0.2180999999046236
test3,test3_smid.csv,1,2020-01-01_12h00.00.000,SMID,2025.2.4,121.9512195,Win32,DBSA,Amber,7.0,YOURSELF,images/WinSmall.jpg,,,,Correct! You win $0.20 for YOURSELF,Miss! You do not win $0.20 for YOURSELF,You responded too early. You do not win $0.20 for YOURSELF,gain,0.2,small,False,self,False,real,real,False,0.3,-5.0,0.0,
test3,test3_smid.csv,1,2020-01-01_12h00.00.000,SMID,2025.2.4,121.9512195,Win32,DBSA,Amber,8.0,NAME,images/WinSmall.jpg,n,,,Correct! You win $0.20 for NAME,Miss! You do not win $0.20 for NAME,You responded too early. You do not win $0.20 for NAME,gain,0.2,small,True,charity,True,real,real,True,0.3,-5.0,0.2,0.24259999990462688
test3,test3_smid.csv,1,2020-01-01_12h00.00.000,SMID,2025.2.4,121.9512195,Win32,DBSA,Amber,9.0,YOURSELF,images/Neutral.jpg,n,,,Correct! You did not win or lose money for YOURSELF,Miss! You did not win or lose money for YOURSELF,You responded too early. You did not win or lose money for YOURSELF,neither,0.0,zero,False,self,True,real,real,True,0.3,-5.0,0.2,0.23970000004766234
test3,test3_smid.csv,1,2020-01-01_12h00.00.000,SMID,2025.2.4,121.9512195,Win32,DBSA,Amber,10.0,YOURSELF,images/Neutral.jpg,n,,,Correct! You did not win or lose money for YOURSELF,Miss! You did not win or lose money for YOURSELF,You responded too early. You did not win or lose money for YOURSELF,neither,0.0,zero,False,self,True,real,real,True,0.3,-5.0,0.2,0.2179999999999893
test3,test3_smid.csv,1,2020-01-01_12h00.00.000,SMID,2025.2.4,121.9512195,Win32,DBSA,Amber,11.0,YOURSELF,images/LoseBig.jpg,,,,Correct! You keep $5 for YOURSELF,Miss! You lose $5 for YOURSELF,You responded too early. You lose $5 for YOURSELF,lose,5.0,big,False,self,False,real,real,False,0.3,-10.0,0.2,
test3,test3_smid.csv,1,2020-01-01_12h00.00.000,SMID,2025.2.4,121.9512195,Win32,DBSA,Amber,12.0,NAME,images/LoseSmall.jpg,n,,,Correct! You keep $0.20 for NAME,Miss! You lost $0.20 for NAME,You responded too early. You lost $0.20 for NAME,lose,0.2,small,True,charity,True,real,real,True,0.3,-10.0,0.2,0.21140000009538085
test3,test3_smid.csv,1,2020-01-01_12h00.00.000,SMID,2025.2.4,121.9512195,Win32,DBSA,Amber,13.0,YOURSELF,images/WinBig.jpg,n,,,Correct! You win $5 for YOURSELF,Miss! You do not win $5 for YOURSELF,You responded too early. You do not win $5 for YOURSELF,gain,5.0,big,False,self,True,real,real,True,0.3,-5.0,0.2,0.06799999999998363
test3,test3_smid.csv,1,2020-01-01_12h00.00.000,SMID,2025.2.4,121.9512195,Win32,DBSA,Amber,14.0,YOURSELF,images/WinSmall.jpg,n,,,Correct! You win $0.20 for YOURSELF,Miss! You do not win $0.20 for YOURSELF,You responded too early. You do not win $0.20 for YOURSELF,gain,0.2,small,False,self,True,real,real,True,0.3,-4.8,0.2,0.24229999995230855
test3,test3_smid.csv,1,2020-01-01_12h00.00.000,SMID,2025.2.4,121.9512195,Win32,DBSA,Amber,15.0,NAME,images/WinBig.jpg,n,,,Correct! You win $5 for NAME,Miss! You do not win $5 for NAME,You responded too early. You do not win $5 for NAME,gain,5.0,big,True,charity,True,real,real,True,0.3,-4.8,5.2,0.22590000009537903
test3,test3_smid.csv,1,2020-01-01_12h00.00.000,SMID,2025.2.4,121.9512195,Win32,DBSA,Amber,16.0,NAME,images/LoseBig.jpg,n,,,Correct! You keep $5 for NAME,Miss! You lost $5 for NAME,You responded too early. You lost $5 for NAME,lose,5.0,big,True,charity,True,real,real,True,0.3,-4.8,5.2,0.21770000004767098
test3,test3_smid.csv,1,2020-01-01_12h00.00.000,SMID,2025.2.4,121.9512195,Win32,DBSA,Amber,17.0,NAME,images/WinBig.jpg,n,,,Correct! You win $5 for NAME,Miss! You do not win $5 for NAME,You responded too early. You do not win $5 for NAME,gain,5.0,big,True,charity,True,real,real,True,0.3,-4.8,10.2,0.23539999985692361
test3,test3_smid.csv,1,2020-01-01_12h00.00.000,SMID,2025.2.4,121.9512195,Win32,DBSA,Amber,18.0,NAME,images/LoseBig.jpg,,,n,Correct! You keep $5 for NAME,Miss! You lost $5 for NAME,You responded too early. You lost $5 for NAME,lose,5.0,big,True,charity,False,real,real,False,0.3,-4.8,5.2,
test3,test3_smid.csv,1,2020-01-01_12h00.00.000,SMID,2025.2.4,121.9512195,Win32,DBSA,Amber,19.0,YOURSELF,images/WinSmall.jpg,n,,,Correct! You win $0.20 for YOURSELF,Miss! You do not win $0.20 for YOURSELF,You responded too early. You do not win $0.20 for YOURSELF,gain,0.2,small,False,self,True,real,real,True,0.3,-4.6,5.2,0.2552000000476937
test3,test3_smid.csv,1,2020-01-01_12h00.00.000,SMID,2025.2.4,121.9512195,Win32,DBSA,Amber,20.0,NAME,images/LoseSmall.jpg,,,n,Correct! You keep $0.20 for NAME,Miss! You lost $0.20 for NAME,You responded too early. You lost $0.20 for NAME,lose,0.2,small,True,charity,False,real,real,False,0.3,-4.6,5.0,
test3,test3_smid.csv,1,2020-01-01_12h00.00.000,SMID,2025.2.4,121.9512195,Win32,DBSA,Amber,21.0,NAME,images/LoseSmall.jpg,n,,,Correct! You keep $0.20 for NAME,Miss! You lost $0.20 for NAME,You responded too early. You lost $0.20 for NAME,lose,0.2,small,True,charity,True,real,real,True,0.3,-4.6,5.0,0.21240000009538562
test3,test3_smid.csv,1,2020-01-01_12h00.00.000,SMID,2025.2.4,121.9512195,Win32,DBSA,Amber,22.0,YOURSELF,images/LoseSmall.jpg,n,,,Correct! You keep $0.20 for YOURSELF,Miss! You lose $0.20 for YOURSELF,You responded too early. You lose $0.20 for YOURSELF,lose,0.2,small,False,self,True,real,real,True,0.3,-4.6,5.0,0.24200000000001864
test3,test3_smid.csv,1,2020-01-01_12h00.00.000,SMID,2025.2.4,121.9512195,Win32,DBSA,Amber,23.0,YOURSELF,images/LoseSmall.jpg,,n,,Correct! You keep $0.20 for YOURSELF,Miss! You lose $0.20 for YOURSELF,You responded too early. You lose $0.20 for YOURSELF,lose,0.2,small,False,self,True,real,real,,,-4.8,5.0,
test3,test3_smid.csv,1,2020-01-01_12h00.00.000,SMID,2025.2.4,121.9512195,Win32,DBSA,Amber,24.0,NAME,images/WinBig.jpg,n,,,Correct! You win $5 for NAME,Miss! You do not win $5 for NAME,You responded too early. You do not win $5 for NAME,gain,5.0,big,True,charity,True,real,real,True,0.3,-4.8,10.0,0.24840000009533014
test3,test3_smid.csv,1,2020-01-01_12h00.00.000,SMID,2025.2.4,121.9512195,Win32,DBSA,Amber,25.0,YOURSELF,images/WinBig.jpg,n,,,Correct! You win $5 for YOURSELF,Miss! You do not win $5 for YOURSELF,You responded too early. You do not win $5 for YOURSELF,gain,5.0,big,False,self,True,real,real,True,0.3,0.2,10.0,0.2425999999046553
test3,test3_smid.csv,1,2020-01-01_12h00.00.000,SMID,2025.2.4,121.9512195,Win32,DBSA,Amber,26.0,NAME,images/WinSmall.jpg,n,,,Correct! You win $0.20 for NAME,Miss! You do not win $0.20 for NAME,You responded too early. You do not win $0.20 for NAME,gain,0.2,small,True,charity,True,real,real,True,0.3,0.2,10.2,0.24219999980925877
test3,test3_smid.csv,1,2020-01-01_12h00.00.000,SMID,2025.2.4,121.9512195,Win32,DBSA,Amber,27.0,YOURSELF,images/WinBig.jpg,n,,,Correct! You win $5 for YOURSELF,Miss! You do not win $5 for YOURSELF,You responded too early. You do not win $5 for YOURSELF,gain,5.0,big,False,self,True,real,real,True,0.3,5.2,10.2,0.21779999995231947
test3,test3_smid.csv,1,2020-01-01_12h00.00.000,SMID,2025.2.4,121.9512195,Win32,DBSA,Amber,28.0,YOURSELF,images/Neutral.jpg,n,,,Correct! You did not win or lose money for YOURSELF,Miss! You did not win or lose money for YOURSELF,You responded too early. You did not win or lose money for YOURSELF,neither,0.0,zero,False,self,True,real,real,True,0.3,5.2,10.2,0.2794000000953929
test3,test3_smid.csv,1,2020-01-01_12h00.00.000,SMID,2025.2.4,121.9512195,Win32,DBSA,Amber,29.0,NAME,images/Neutral.jpg,n,,,Correct! You did not win or lose money for NAME,Miss! You did not win or lose money for NAME,You responded too early. You did not win or lose money for NAME,neither,0.0,zero,True,charity,True,real,real,True,0.3,5.2,10.2,0.2615000000000123
test3,test3_smid.csv,1,2020-01-01_12h00.00.000,SMID,2025.2.4,121.9512195,Win32,DBSA,Amber,30.0,NAME,images/Neutral.jpg,,,n,Correct! You did not win or lose money for NAME,Miss! You did not win or lose money for NAME,You responded too early. You did not win or lose money for NAME,neither,0.0,zero,True,charity,False,real,real,False,0.3,5.2,10.2,
test3,test3_smid.csv,1,2020-01-01_12h00.00.000,SMID,2025.2.4,121.9512195,Win32,DBSA,Amber,31.0,YOURSELF,images/Neutral.jpg,n,,,Correct! You did not win or lose money for YOURSELF,Miss! You did not win or lose money for YOURSELF,You responded too early. You did not win or lose money for YOURSELF,neither,0.0,zero,False,self,True,real,real,True,0.3,5.2,10.2,0.2444000000953679
test3,test3_smid.csv,1,2020-01-01_12h00.00.000,SMID,2025.2.4,121.9512195,Win32,DBSA,Amber,32.0,NAME,images/WinSmall.jpg,n,,,Correct! You win $0.20 for NAME,Miss! You do not win $0.20 for NAME,You responded too early. You do not win $0.20 for NAME,gain,0.2,small,True,charity,True,real,real,True,0.3,5.2,10.4,0.12659999990461301
test3,test3_smid.csv,1,2020-01-01_12h00.00.000,SMID,2025.2.4,121.9512195,Win32,DBSA,Amber,33.0,YOURSELF,images/LoseBig.jpg,n,,,Correct! You keep $5 for YOURSELF,Miss! You lose $5 for YOURSELF,You responded too early. You lose $5 for YOURSELF,lose,5.0,big,False,self,True,real,real,True,0.3,5.2,10.4,0.24240000009535834
test3,test3_smid.csv,1,2020-01-01_12h00.00.000,SMID,2025.2.4,121.9512195,Win32,DBSA,Amber,34.0,YOURSELF,images/LoseSmall.jpg,n,,,Correct! You keep $0.20 for YOURSELF,Miss! You lose $0.20 for YOURSELF,You responded too early. You lose $0.20 for YOURSELF,lose,0.2,small,False,self,True,real,real,True,0.3,5.2,10.4,0.24890000009537516
test3,test3_smid.csv,1,2020-01-01_12h00.00.000,SMID,2025.2.4,121.9512195,Win32,DBSA,Amber,35.0,NAME,images/WinBig.jpg,n,,,Correct! You win $5 for NAME,Miss! You do not win $5 for NAME,You responded too early. You do not win $5 for NAME,gain,5.0,big,True,charity,True,real,real,True,0.3,5.2,15.4,0.2102000000476778
test3,test3_smid.csv,1,2020-01-01_12h00.00.000,SMID,2025.2.4,121.9512195,Win32,DBSA,Amber,36.0,NAME,images/LoseSmall.jpg,n,,,Correct! You keep $0.20 for NAME,Miss! You lost $0.20 for NAME,You responded too early. You lost $0.20 for NAME,lose,0.2,small,True,charity,True,real,real,True,0.3,5.2,15.4,0.21810000014306752
test3,test3_smid.csv,1,2020-01-01_12h00.00.000,SMID,2025.2.4,121.9512195,Win32,DBSA,Amber,37.0,NAME,images/LoseBig.jpg,n,,,Correct! You keep $5 for NAME,Miss! You lost $5 for NAME,You responded too early. You lost $5 for NAME,lose,5.0,big,True,charity,True,real,real,True,0.3,5.2,15.4,0.22780000019076851
test3,test3_smid.csv,1,2020-01-01_12h00.00.000,SMID,2025.2.4,121.9512195,Win32,DBSA,Amber,38.0,YOURSELF,images/LoseSmall.jpg,n,,,Correct! You keep $0.20 for YOURSELF,Miss! You lose $0.20 for YOURSELF,You responded too early. You lose $0.20 for YOURSELF,lose,0.2,small,False,self,True,real,real,True,0.3,5.2,15.4,0.285000000000025
test3,test3_smid.csv,1,2020-01-01_12h00.00.000,SMID,2025.2.4,121.9512195,Win32,DBSA,Amber,39.0,YOURSELF,images/Neutral.jpg,,,,Correct! You did not win or lose money for YOURSELF,Miss! You did not win or lose money for YOURSELF,You responded too early. You did not win or lose money for YOURSELF,neither,0.0,zero,False,self,False,real,real,False,0.3,5.2,15.4,
test3,test3_smid.csv,1,2020-01-01_12h00.00.000,SMID,2025.2.4,121.9512195,Win32,DBSA,Amber,40.0,NAME,images/WinSmall.jpg,n,,,Correct! You win $0.20 for NAME,Miss! You do not win $0.20 for NAME,You responded too early. You do not win $0.20 for NAME,gain,0.2,small,True,charity,True,real,real,True,0.3,5.2,15.6,0.23340000009540063
test3,test3_smid.csv,1,2020-01-01_12h00.00.000,SMID,2025.2.4,121.9512195,Win32,DBSA,Amber,41.0,YOURSELF,images/WinSmall.jpg,n,,,Correct! You win $0.20 for YOURSELF,Miss! You do not win $0.20 for YOURSELF,You responded too early. You do not win $0.20 for YOURSELF,gain,0.2,small,False,self,True,real,real,True,0.3,5.4,15.6,0.22680000019073532
test3,test3_smid.csv,1,2020-01-01_12h00.00.000,SMID,2025.2.4,121.9512195,Win32,DBSA,Amber,42.0,NAME,images/LoseBig.jpg,n,,,Correct! You keep $5 for NAME,Miss! You lost $5 for NAME,You responded too early. You lost $5 for NAME,lose,5.0,big,True,charity,True,real,real,True,0.3,5.4,15.6,0.25979999995229264
test3,test3_smid.csv,1,2020-01-01_12h00.00.000,SMID,2025.2.4,121.9512195,Win32,DBSA,Amber,43.0,YOURSELF,images/WinBig.jpg,n,,,Correct! You win $5 for YOURSELF,Miss! You do not win $5 for YOURSELF,You responded too early. You do not win $5 for YOURSELF,gain,5.0,big,False,self,True,real,real,True,0.3,10.4,15.6,0.25
test3,test3_smid.csv,1,2020-01-01_12h00.00.000,SMID,2025.2.4,121.9512195,Win32,DBSA,Amber,44.0,NAME,images/LoseBig.jpg,n,,,Correct! You keep $5 for NAME,Miss! You lost $5 for NAME,You responded too early. You lost $5 for NAME,lose,5.0,big,True,charity,True,real,real,True,0.3,10.4,15.6,0.2022999999522881
test3,test3_smid.csv,1,2020-01-01_12h00.00.000,SMID,2025.2.4,121.9512195,Win32,DBSA,Amber,45.0,YOURSELF,images/WinBig.jpg,,,,Correct! You win $5 for YOURSELF,Miss! You do not win $5 for YOURSELF,You responded too early. You do not win $5 for YOURSELF,gain,5.0,big,False,self,False,real,real,False,0.272904829,10.4,15.6,
test3,test3_smid.csv,1,2020-01-01_12h00.00.000,SMID,2025.2.4,121.9512195,Win32,DBSA,Amber,46.0,YOURSELF,images/LoseBig.jpg,n,,,Correct! You keep $5 for YOURSELF,Miss! You lose $5 for YOURSELF,You responded too early. You lose $5 for YOURSELF,lose,5.0,big,False,self,True,real,real,True,0.272904829,10.4,15.6,0.23500000000001364
test3,test3_smid.csv,1,2020-01-01_12h00.00.000,SMID,2025.2.4,121.9512195,Win32,DBSA,Amber,47.0,YOURSELF,images/LoseSmall.jpg,n,,,Correct! You keep $0.20 for YOURSELF,Miss! You lose $0.20 for YOURSELF,You responded too early. You lose $0.20 for YOURSELF,lose,0.2,small,False,self,True,real,real,True,0.272904829,10.4,15.6,0.23379999995228218
test3,test3_smid.csv,1,2020-01-01_12h00.00.000,SMID,2025.2.4,121.9512195,Win32,DBSA,Amber,48.0,NAME,images/WinBig.jpg,,,n,Correct! You win $5 for NAME,Miss! You do not win $5 for NAME,You responded too early. You do not win $5 for NAME,gain,5.0,big,True,charity,False,real,real,False,0.272904829,10.4,15.6,
test3,test3_smid.csv,1,2020-01-01_12h00.00.000,SMID,2025.2.4,121.9512195,Win32,DBSA,Amber,49.0,YOURSELF,images/LoseBig.jpg,n,,,Correct! You keep $5 for YOURSELF,Miss! You lose $5 for YOURSELF,You responded too early. You lose $5 for YOURSELF,lose,5.0,big,False,self,True,real,real,True,0.272904829,10.4,15.6,0.242999999999995
test3,test3_smid.csv,1,2020-01-01_12h00.00.000,SMID,2025.2.4,121.9512195,Win32,DBSA,Amber,50.0,NAME,images/LoseSmall.jpg,n,,,Correct! You keep $0.20 for NAME,Miss! You lost $0.20 for NAME,You responded too early. You lost $0.20 for NAME,lose,0.2,small,True,charity,True,real,real,True,0.272904829,10.4,15.6,0.19359999990456345
test3,test3_smid.csv,1,2020-01-01_12h00.00.000,SMID,2025.2.4,121.9512195,Win32,DBSA,Amber,51.0,YOURSELF,images/WinBig.jpg,,,n,Correct! You win $5 for YOURSELF,Miss! You do not win $5 for YOURSELF,You responded too early. You do not win $5 for YOURSELF,gain,5.0,big,False,self,False,real,real,False,0.272904829,10.4,15.6,
test3,test3_smid.csv,1,2020-01-01_12h00.00.000,SMID,2025.2.4,121.9512195,Win32,DBSA,Amber,52.0,YOURSELF,images/WinBig.jpg,,,n,Correct! You win $5 for YOURSELF,Miss! You do not win $5 for YOURSELF,You responded too early. You do not win $5 for YOURSELF,gain,5.0,big,False,self,False,real,real,False,0.272904829,10.4,15.6,
test3,test3_smid.csv,1,2020-01-01_12h00.00.000,SMID,2025.2.4,121.9512195,Win32,DBSA,Amber,53.0,NAME,images/LoseBig.jpg,n,,,Correct! You keep $5 for NAME,Miss! You lost $5 for NAME,You responded too early. You lost $5 for NAME,lose,5.0,big,True,charity,True,real,real,True,0.272904829,10.4,15.6,0.20829999995237358
test3,test3_smid.csv,1,2020-01-01_12h00.00.000,SMID,2025.2.4,121.9512195,Win32,DBSA,Amber,54.0,YOURSELF,images/LoseBig.jpg,,,,Correct! You keep $5 for YOURSELF,Miss! You lose $5 for YOURSELF,You responded too early. You lose $5 for YOURSELF,lose,5.0,big,False,self,False,real,real,False,0.272904829,5.4,15.6,
test3,test3_smid.csv,1,2020-01-01_12h00.00.000,SMID,2025.2.4,121.9512195,Win32,DBSA,Amber,55.0,YOURSELF,images/WinSmall.jpg,n,,,Correct! You win $0.20 for YOURSELF,Miss! You do not win $0.20 for YOURSELF,You responded too early. You do not win $0.20 for YOURSELF,gain,0.2,small,False,self,True,real,real,True,0.272904829,5.6,15.6,0.21900000000005093
test3,test3_smid.csv,1,2020-01-01_12h00.00.000,SMID,2025.2.4,121.9512195,Win32,DBSA,Amber,56.0,NAME,images/Neutral.jpg,,,,Correct! You did not win or lose money for NAME,Miss! You did not win or lose money for NAME,You responded too early. You did not win or lose money for NAME,neither,0.0,zero,True,charity,False,real,real,False,0.272904829,5.6,15.6,
test3,test3_smid.csv,1,2020-01-01_12h00.00.000,SMID,2025.2.4,121.9512195,Win32,DBSA,Amber,57.0,NAME,images/LoseBig.jpg,n,,,Correct! You keep $5 for NAME,Miss! You lost $5 for NAME,You responded too early. You lost $5 for NAME,lose,5.0,big,True,charity,True,real,real,True,0.272904829,5.6,15.6,0.24149999999997362
test3,test3_smid.csv,1,2020-01-01_12h00.00.000,SMID,2025.2.4,121.9512195,Win32,DBSA,Amber,58.0,NAME,images/WinSmall.jpg,n,,,Correct! You win $0.20 for NAME,Miss! You do not win $0.20 for NAME,You responded too early. You do not win $0.20 for NAME,gain,0.2,small,True,charity,True,real,real,True,0.272904829,5.6,15.8,0.24610000014308753
test3,test3_smid.csv,1,2020-01-01_12h00.00.000,SMID,2025.2.4,121.9512195,Win32,DBSA,Amber,59.0,YOURSELF,images/WinBig.jpg,,n,,Correct! You win $5 for YOURSELF,Miss! You do not win $5 for YOURSELF,You responded too early. You do not win $5 for YOURSELF,gain,5.0,big,False,self,True,real,real,,,5.6,15.8,
test3,test3_smid.csv,1,2020-01-01_12h00.00.000,SMID,2025.2.4,121.9512195,Win32,DBSA,Amber,60.0,YOURSELF,images/LoseBig.jpg,,,n,Correct! You keep $5 for YOURSELF,Miss! You lose $5 for YOURSELF,You responded too early. You lose $5 for YOURSELF,lose,5.0,big,False,self,False,real,real,False,0.272904829,0.6,15.8,
test3,test3_smid.csv,1,2020-01-01_12h00.00.000,SMID,2025.2.4,121.9512195,Win32,DBSA,Amber,61.0,YOURSELF,images/LoseBig.jpg,n,,,Correct! You keep $5 for YOURSELF,Miss! You lose $5 for YOURSELF,You responded too early. You lose $5 for YOURSELF,lose,5.0,big,False,self,True,real,real,True,0.272904829,0.6,15.8,0.22569999980930788
test3,test3_smid.csv,1,2020-01-01_12h00.00.000,SMID,2025.2.4,121.9512195,Win32,DBSA,Amber,62.0,NAME,images/Neutral.jpg,n,,,Correct! You did not win or lose money for NAME,Miss! You did not win or lose money for NAME,You responded too early. You did not win or lose money for NAME,neither,0.0,zero,True,charity,True,real,real,True,0.272904829,0.6,15.8,0.2151999998093288
test3,test3_smid.csv,1,2020-01-01_12h00.00.000,SMID,2025.2.4,121.9512195,Win32,DBSA,Amber,63.0,YOURSELF,images/WinSmall.jpg,,,n,Correct! You win $0.20 for YOURSELF,Miss! You do not win $0.20 for YOURSELF,You responded too early. You do not win $0.20 for YOURSELF,gain,0.2,small,False,self,False,real,real,False,0.272904829,0.6,15.8,
test3,test3_smid.csv,1,2020-01-01_12h00.00.000,SMID,2025.2.4,121.9512195,Win32,DBSA,Amber,64.0,NAME,images/Neutral.jpg,n,,,Correct! You did not win or lose money for NAME,Miss! You did not win or lose money for NAME,You responded too early. You did not win or lose money for NAME,neither,0.0,zero,True,charity,True,real,real,True,0.272904829,0.6,15.8,0.2098000001907394
test3,test3_smid.csv,1,2020-01-01_12h00.00.000,SMID,2025.2.4,121.9512195,Win32,DBSA,Amber,65.0,NAME,images/Neutral.jpg,n,,,Correct! You did not win or lose money for NAME,Miss! You did not win or lose money for NAME,You responded too early. You did not win or lose money for NAME,neither,0.0,zero,True,charity,True,real,real,True,0.272904829,0.6,15.8,0.24209999990455344
test3,test3_smid.csv,1,2020-01-01_12h00.00.000,SMID,2025.2.4,121.9512195,Win32,DBSA,Amber,66.0,NAME,images/WinSmall.jpg,n,,,Correct! You win $0.20 for NAME,Miss! You do not win $0.20 for NAME,You responded too early. You do not win $0.20 for NAME,gain,0.2,small,True,charity,True,real,real,True,0.272904829,0.6,16.0,0.22640000009539563
test3,test3_smid.csv,1,2020-01-01_12h00.00.000,SMID,2025.2.4,121.9512195,Win32,DBSA,Amber,67.0,NAME,images/LoseSmall.jpg,n,,,Correct! You keep $0.20 for NAME,Miss! You lost $0.20 for NAME,You responded too early. You lost $0.20 for NAME,lose,0.2,small,True,charity,True,real,real,True,0.272904829,0.6,16.0,0.23550000000000182
test3,test3_smid.csv,1,2020-01-01_12h00.00.000,SMID,2025.2.4,121.9512195,Win32,DBSA,Amber,68.0,YOURSELF,images/WinSmall.jpg,n,,,Correct! You win $0.20 for YOURSELF,Miss! You do not win $0.20 for YOURSELF,You responded too early. You do not win $0.20 for YOURSELF,gain,0.2,small,False,self,True,real,real,True,0.272904829,0.8,16.0,0.19440000009535652
test3,test3_smid.csv,1,2020-01-01_12h00.00.000,SMID,2025.2.4,121.9512195,Win32,DBSA,Amber,69.0,YOURSELF,images/WinSmall.jpg,n,,,Correct! You win $0.20 for YOURSELF,Miss! You do not win $0.20 for YOURSELF,You responded too early. You do not win $0.20 for YOURSELF,gain,0.2,small,False,self,True,real,real,True,0.272904829,1.0,16.0,0.2029000000953829
test3,test3_smid.csv,1,2020-01-01_12h00.00.000,SMID,2025.2.4,121.9512195,Win32,DBSA,Amber,70.0,YOURSELF,images/LoseBig.jpg,n,,,Correct! You keep $5 for YOURSELF,Miss! You lose $5 for YOURSELF,You responded too early. You lose $5 for YOURSELF,lose,5.0,big,False,self,True,real,real,True,0.272904829,1.0,16.0,0.20170000004770827
test3,test3_smid.csv,1,2020-01-01_12h00.00.000,SMID,2025.2.4,121.9512195,Win32,DBSA,Amber,71.0,YOURSELF,images/WinBig.jpg,,,n,Correct! You win $5 for YOURSELF,Miss! You do not win $5 for YOURSELF,You responded too early. You do not win $5 for YOURSELF,gain,5.0,big,False,self,False,real,real,False,0.272904829,1.0,16.0,
test3,test3_smid.csv,1,2020-01-01_12h00.00.000,SMID,2025.2.4,121.9512195,Win32,DBSA,Amber,72.0,NAME,images/Neutral.jpg,,,n,Correct! You did not win or lose money for NAME,Miss! You did not win or lose money for NAME,You responded too early. You did not win or lose money for NAME,neither,0.0,zero,True,charity,False,real,real,False,0.272904829,1.0,16.0,
test3,test3_smid.csv,1,2020-01-01_12h00.00.000,SMID,2025.2.4,121.9512195,Win32,DBSA,Amber,73.0,NAME,images/LoseBig.jpg,n,,,Correct! You keep $5 for NAME,Miss! You lost $5 for NAME,You responded too early. You lost $5 for NAME,lose,5.0,big,True,charity,True,real,real,True,0.272904829,1.0,16.0,0.2088999998569534
test3,test3_smid.csv,1,2020-01-01_12h00.00.000,SMID,2025.2.4,121.9512195,Win32,DBSA,Amber,74.0,YOURSELF,images/LoseSmall.jpg,n,,,Correct! You keep $0.20 for YOURSELF,Miss! You lose $0.20 for YOURSELF,You responded too early. You lose $0.20 for YOURSELF,lose,0.2,small,False,self,True,real,real,True,0.272904829,1.0,16.0,0.23279999995224898
test3,test3_smid.csv,1,2020-01-01_12h00.00.000,SMID,2025.2.4,121.9512195,Win32,DBSA,Amber,75.0,NAME,images/WinBig.jpg,n,,,Correct! You win $5 for NAME,Miss! You do not win $5 for NAME,You responded too early. You do not win $5 for NAME,gain,5.0,big,True,charity,True,real,real,True,0.272904829,1.0,21.0,0.21770000004767098
test3,test3_smid.csv,1,2020-01-01_12h00.00.000,SMID,2025.2.4,121.9512195,Win32,DBSA,Amber,76.0,NAME,images/WinBig.jpg,n,,,Correct! You win $5 for NAME,Miss! You do not win $5 for NAME,You responded too early. You do not win $5 for NAME,gain,5.0,big,True,charity,True,real,real,True,0.272904829,1.0,26.0,0.21969999980933608
test3,test3_smid.csv,1,2020-01-01_12h00.00.000,SMID,2025.2.4,121.9512195,Win32,DBSA,Amber,77.0,YOURSELF,images/LoseSmall.jpg,,,n,Correct! You keep $0.20 for YOURSELF,Miss! You lose $0.20 for YOURSELF,You responded too early. You lose $0.20 for YOURSELF,lose,0.2,small,False,self,False,real,real,False,0.272904829,0.8,26.0,
test3,test3_smid.csv,1,2020-01-01_12h00.00.000,SMID,2025.2.4,121.9512195,Win32,DBSA,Amber,78.0,NAME,images/WinBig.jpg,,,,Correct! You win $5 for NAME,Miss! You do not win $5 for NAME,You responded too early. You do not win $5 for NAME,gain,5.0,big,True,charity,False,real,real,False,0.272904829,0.8,26.0,
test3,test3_smid.csv,1,2020-01-01_12h00.00.000,SMID,2025.2.4,121.9512195,Win32,DBSA,Amber,79.0,NAME,images/LoseSmall.jpg,,,n,Correct! You keep $0.20 for NAME,Miss! You lost $0.20 for NAME,You responded too early. You lost $0.20 for NAME,lose,0.2,small,True,charity,False,real,real,False,0.272904829,0.8,25.8,
test3,test3_smid.csv,1,2020-01-01_12h00.00.000,SMID,2025.2.4,121.9512195,Win32,DBSA,Amber,80.0,NAME,images/Neutral.jpg,,,n,Correct! You did not win or lose money for NAME,Miss! You did not win or lose money for NAME,You responded too early. You did not win or lose money for NAME,neither,0.0,zero,True,charity,False,real,real,False,0.272904829,0.8,25.8,
test3,test3_smid.csv,1,2020-01-01_12h00.00.000,SMID,2025.2.4,121.9512195,Win32,DBSA,Amber,81.0,YOURSELF,images/WinBig.jpg,n,,,Correct! You win $5 for YOURSELF,Miss! You do not win $5 for YOURSELF,You responded too early. You do not win $5 for YOURSELF,gain,5.0,big,False,self,True,real,real,True,0.272904829,5.8,25.8,0.17250000000001364
test3,test3_smid.csv,1,2020-01-01_12h00.00.000,SMID,2025.2.4,121.9512195,Win32,DBSA,Amber,82.0,YOURSELF,images/LoseBig.jpg,,,n,Correct! You keep $5 for YOURSELF,Miss! You lose $5 for YOURSELF,You responded too early. You lose $5 for YOURSELF,lose,5.0,big,False,self,False,real,real,False,0.272904829,0.8,25.8,
test3,test3_smid.csv,1,2020-01-01_12h00.00.000,SMID,2025.2.4,121.9512195,Win32,DBSA,Amber,83.0,YOURSELF,images/Neutral.jpg,,,n,Correct! You did not win or lose money for YOURSELF,Miss! You did not win or lose money for YOURSELF,You responded too early. You did not win or lose money for YOURSELF,neither,0.0,zero,False,self,False,real,real,False,0.272904829,0.8,25.8,
test3,test3_smid.csv,1,2020-01-01_12h00.00.000,SMID,2025.2.4,121.9512195,Win32,DBSA,Amber,84.0,NAME,images/LoseSmall.jpg,,,,Correct! You keep $0.20 for NAME,Miss! You lost $0.20 for NAME,You responded too early. You lost $0.20 for NAME,lose,0.2,small,True,charity,False,real,real,False,0.272904829,0.8,25.6,
test3,test3_smid.csv,1,2020-01-01_12h00.00.000,SMID,2025.2.4,121.9512195,Win32,DBSA,Amber,85.0,NAME,images/Neutral.jpg,,,n,Correct! You did not win or lose money for NAME,Miss! You did not win or lose money for NAME,You responded too early. You did not win or lose money for NAME,neither,0.0,zero,True,charity,False,real,real,False,0.272904829,0.8,25.6,
test3,test3_smid.csv,1,2020-01-01_12h00.00.000,SMID,2025.2.4,121.9512195,Win32,DBSA,Amber,86.0,NAME,images/WinSmall.jpg,n,,,Correct! You win $0.20 for NAME,Miss! You do not win $0.20 for NAME,You responded too early. You do not win $0.20 for NAME,gain,0.2,small,True,charity,True,real,real,True,0.272904829,0.8,25.8,0.1426999998092242
test3,test3_smid.csv,1,2020-01-01_12h00.00.000,SMID,2025.2.4,121.9512195,Win32,DBSA,Amber,87.0,NAME,images/WinBig.jpg,n,,,Correct! You win $5 for NAME,Miss! You do not win $5 for NAME,You responded too early. You do not win $5 for NAME,gain,5.0,big,True,charity,True,real,real,True,0.272904829,0.8,30.8,0.20590000009531195
test3,test3_smid.csv,1,2020-01-01_12h00.00.000,SMID,2025.2.4,121.9512195,Win32,DBSA,Amber,88.0,NAME,images/LoseSmall.jpg,,,,Correct! You keep $0.20 for NAME,Miss! You lost $0.20 for NAME,You responded too early. You lost $0.20 for NAME,lose,0.2,small,True,charity,False,real,real,False,0.272904829,0.8,30.6,
test3,test3_smid.csv,1,2020-01-01_12h00.00.000,SMID,2025.2.4,121.9512195,Win32,DBSA,Amber,89.0,YOURSELF,images/Neutral.jpg,,,n,Correct! You did not win or lose money for YOURSELF,Miss! You did not win or lose money for YOURSELF,You responded too early. You did not win or lose money for YOURSELF,neither,0.0,zero,False,self,False,real,real,False,0.272904829,0.8,30.6,
test3,test3_smid.csv,1,2020-01-01_12h00.00.000,SMID,2025.2.4,121.9512195,Win32,DBSA,Amber,90.0,YOURSELF,images/WinSmall.jpg,,,n,Correct! You win $0.20 for YOURSELF,Miss! You do not win $0.20 for YOURSELF,You responded too early. You do not win $0.20 for YOURSELF,gain,0.2,small,False,self,False,real,real,False,0.272904829,0.8,30.6,
test3,test3_smid.csv,1,2020-01-01_12h00.00.000,SMID,2025.2.4,121.9512195,Win32,DBSA,Amber,91.0,YOURSELF,images/WinBig.jpg,,,,Correct! You win $5 for YOURSELF,Miss! You do not win $5 for YOURSELF,You responded too early. You do not win $5 for YOURSELF,gain,5.0,big,False,self,False,real,real,False,0.272904829,0.8,30.6,
test3,test3_smid.csv,1,2020-01-01_12h00.00.000,SMID,2025.2.4,121.9512195,Win32,DBSA,Amber,92.0,NAME,images/WinSmall.jpg,,,,Correct! You win $0.20 for NAME,Miss! You do not win $0.20 for NAME,You responded too early. You do not win $0.20 for NAME,gain,0.2,small,True,charity,False,real,real,False,0.272904829,0.8,30.6,
test3,test3_smid.csv,1,2020-01-01_12h00.00.000,SMID,2025.2.4,121.9512195,Win32,DBSA,Amber,93.0,NAME,images/WinSmall.jpg,,,,Correct! You win $0.20 for NAME,Miss! You do not win $0.20 for NAME,You responded too early. You do not win $0.20 for NAME,gain,0.2,small,True,charity,False,real,real,False,0.272904829,0.8,30.6,
test3,test3_smid.csv,1,2020-01-01_12h00.00.000,SMID,2025.2.4,121.9512195,Win32,DBSA,Amber,94.0,YOURSELF,images/Neutral.jpg,n,,,Correct! You did not win or lose money for YOURSELF,Miss! You did not win or lose money for YOURSELF,You responded too early. You did not win or lose money for YOURSELF,neither,0.0,zero,False,self,True,real,real,True,0.344159491,0.8,30.6,0.20130000019071304
test3,test3_smid.csv,1,2020-01-01_12h00.00.000,SMID,2025.2.4,121.9512195,Win32,DBSA,Amber,95.0,NAME,images/WinBig.jpg,n,,,Correct! You win $5 for NAME,Miss! You do not win $5 for NAME,You responded too early. You do not win $5 for NAME,gain,5.0,big,True,charity,True,real,real,True,0.344159491,0.8,35.6,0.2756999998092624
test3,test3_smid.csv,1,2020-01-01_12h00.00.000,SMID,2025.2.4,121.9512195,Win32,DBSA,Amber,96.0,NAME,images/LoseBig.jpg,n,,,Correct! You keep $5 for NAME,Miss! You lost $5 for NAME,You responded too early. You lost $5 for NAME,lose,5.0,big,True,charity,True,real,real,True,0.344159491,0.8,35.6,0.21540000009531468
test3,test3_smid.csv,1,2020-01-01_12h00.00.000,SMID,2025.2.4,121.9512195,Win32,DBSA,Amber,97.0,NAME,images/LoseBig.jpg,n,,,Correct! You keep $5 for NAME,Miss! You lost $5 for NAME,You responded too early. You lost $5 for NAME,lose,5.0,big,True,charity,True,real,real,True,0.344159491,0.8,35.6,0.2213999998568852
test3,test3_smid.csv,1,2020-01-01_12h00.00.000,SMID,2025.2.4,121.9512195,Win32,DBSA,Amber,98.0,YOURSELF,images/Neutral.jpg,,,n,Correct! You did not win or lose money for YOURSELF,Miss! You did not win or lose money for YOURSELF,You responded too early. You did not win or lose money for YOURSELF,neither,0.0,zero,False,self,False,real,real,False,0.344159491,0.8,35.6,
test3,test3_smid.csv,1,2020-01-01_12h00.00.000,SMID,2025.2.4,121.9512195,Win32,DBSA,Amber,99.0,YOURSELF,images/LoseBig.jpg,n,,,Correct! You keep $5,Miss! You lose $5,You responded too early. You lose $5,lose,5.0,big,False,self,True,real,real,True,0.344159491,0.8,35.6,0.2017999999522999
test4,test4_smid.csv,1,2020-01-01_00h00.00.000,SMID,2025.2.4,62.11180124,MacIntel,DBSA,Lila,0.0,YOURSELF,images/WinSmall.jpg,n,,,Correct! You win $0.20 for YOURSELF,Miss! You do not win $0.20 for YOURSELF,You responded too early. You do not win $0.20 for YOURSELF,gain,0.2,small,False,self,True,practice,practice,,,,,3.953700000047675
test4,test4_smid.csv,1,2020-01-01_00h00.00.000,SMID,2025.2.4,62.11180124,MacIntel,DBSA,Lila,1.0,NAME,images/WinSmall.jpg,n,,,Correct! You win $0.20 for NAME,Miss! You do not win $0.20 for NAME,You responded too early. You do not win $0.20 for NAME,gain,0.2,small,True,charity,True,practice,practice,,,,,0.455799999952319
test4,test4_smid.csv,1,2020-01-01_00h00.00.000,SMID,2025.2.4,62.11180124,MacIntel,DBSA,Lila,2.0,YOURSELF,images/LoseBig.jpg,n,,,Correct! You keep $5 for YOURSELF,Miss! You lose $5 for YOURSELF,You responded too early. You lose $5 for YOURSELF,lose,5.0,big,False,self,True,practice,practice,,,,,0.3001000000238463
test4,test4_smid.csv,1,2020-01-01_00h00.00.000,SMID,2025.2.4,62.11180124,MacIntel,DBSA,Lila,0.0,YOURSELF,images/LoseSmall.jpg,,,n,Correct! You keep $0.20 for YOURSELF,Miss! You lose $0.20 for YOURSELF,You responded too early. You lose $0.20 for YOURSELF,lose,0.2,small,False,self,False,real,real,False,0.3,-0.2,0.0,
test4,test4_smid.csv,1,2020-01-01_00h00.00.000,SMID,2025.2.4,62.11180124,MacIntel,DBSA,Lila,1.0,NAME,images/LoseBig.jpg,,,n,Correct! You keep $5 for NAME,Miss! You lost $5 for NAME,You responded too early. You lost $5 for NAME,lose,5.0,big,True,charity,False,real,real,False,0.3,-0.2,-5.0,
test4,test4_smid.csv,1,2020-01-01_00h00.00.000,SMID,2025.2.4,62.11180124,MacIntel,DBSA,Lila,2.0,YOURSELF,images/LoseSmall.jpg,,,n,Correct! You keep $0.20 for YOURSELF,Miss! You lose $0.20 for YOURSELF,You responded too early. You lose $0.20 for YOURSELF,lose,0.2,small,False,self,False,real,real,False,0.3,-0.4,-5.0,
test4,test4_smid.csv,1,2020-01-01_00h00.00.000,SMID,2025.2.4,62.11180124,MacIntel,DBSA,Lila,3.0,YOURSELF,images/LoseBig.jpg,,n,,Correct! You keep $5 for YOURSELF,Miss! You lose $5 for YOURSELF,You responded too early. You lose $5 for YOURSELF,lose,5.0,big,False,self,True,real,real,,,-5.4,-5.0,
test4,test4_smid.csv,1,2020-01-01_00h00.00.000,SMID,2025.2.4,62.11180124,MacIntel,DBSA,Lila,4.0,NAME,images/Neutral.jpg,,,,Correct! You did not win or lose money for NAME,Miss! You did not win or lose money for NAME,You responded too early. You did not win or lose money for NAME,neither,0.0,zero,True,charity,False,real,real,False,0.316951106,-5.4,-5.0,
test4,test4_smid.csv,1,2020-01-01_00h00.00.000,SMID,2025.2.4,62.11180124,MacIntel,DBSA,Lila,5.0,NAME,images/WinBig.jpg,n,,,Correct! You win $5 for NAME,Miss! You do not win $5 for NAME,You responded too early. You do not win $5 for NAME,gain,5.0,big,True,charity,True,real,real,True,0.325426659,-5.4,0.0,0.28760000002384345
test4,test4_smid.csv,1,2020-01-01_00h00.00.000,SMID,2025.2.4,62.11180124,MacIntel,DBSA,Lila,6.0,NAME,images/Neutral.jpg,n,,,Correct! You did not win or lose money for NAME,Miss! You did not win or lose money for NAME,You responded too early. You did not win or lose money for NAME,neither,0.0,zero,True,charity,True,real,real,True,0.325426659,-5.4,0.0,0.2889000000953672
test4,test4_smid.csv,1,2020-01-01_00h00.00.000,SMID,2025.2.4,62.11180124,MacIntel,DBSA,Lila,7.0,YOURSELF,images/WinSmall.jpg,,,n,Correct! You win $0.20 for YOURSELF,Miss! You do not win $0.20 for YOURSELF,You responded too early. You do not win $0.20 for YOURSELF,gain,0.2,small,False,self,False,real,real,False,0.325426659,-5.4,0.0,
test4,test4_smid.csv,1,2020-01-01_00h00.00.000,SMID,2025.2.4,62.11180124,MacIntel,DBSA,Lila,8.0,NAME,images/WinSmall.jpg,,,n,Correct! You win $0.20 for NAME,Miss! You do not win $0.20 for NAME,You responded too early. You do not win $0.20 for NAME,gain,0.2,small,True,charity,False,real,real,False,0.349345163,-5.4,0.0,
test4,test4_smid.csv,1,2020-01-01_00h00.00.000,SMID,2025.2.4,62.11180124,MacIntel,DBSA,Lila,9.0,YOURSELF,images/Neutral.jpg,n,,,Correct! You did not win or lose money for YOURSELF,Miss! You did not win or lose money for YOURSELF,You responded too early. You did not win or lose money for YOURSELF,neither,0.0,zero,False,self,True,real,real,True,0.3757724,-5.4,0.0,0.30699999999998795
test4,test4_smid.csv,1,2020-01-01_00h00.00.000,SMID,2025.2.4,62.11180124,MacIntel,DBSA,Lila,10.0,YOURSELF,images/Neutral.jpg,n,,,Correct! You did not win or lose money for YOURSELF,Miss! You did not win or lose money for YOURSELF,You responded too early. You did not win or lose money for YOURSELF,neither,0.0,zero,False,self,True,real,real,True,0.3757724,-5.4,0.0,0.2846000000238291
test4,test4_smid.csv,1,2020-01-01_00h00.00.000,SMID,2025.2.4,62.11180124,MacIntel,DBSA,Lila,11.0,YOURSELF,images/LoseBig.jpg,n,,,Correct! You keep $5 for YOURSELF,Miss! You lose $5 for YOURSELF,You responded too early. You lose $5 for YOURSELF,lose,5.0,big,False,self,True,real,real,True,0.3757724,-5.4,0.0,0.2917999999523033
test4,test4_smid.csv,1,2020-01-01_00h00.00.000,SMID,2025.2.4,62.11180124,MacIntel,DBSA,Lila,12.0,NAME,images/LoseSmall.jpg,n,,,Correct! You keep $0.20 for NAME,Miss! You lost $0.20 for NAME,You responded too early. You lost $0.20 for NAME,lose,0.2,small,True,charity,True,real,real,True,0.3757724,-5.4,0.0,0.2827999999523172
test4,test4_smid.csv,1,2020-01-01_00h00.00.000,SMID,2025.2.4,62.11180124,MacIntel,DBSA,Lila,13.0,YOURSELF,images/WinBig.jpg,n,,,Correct! You win $5 for YOURSELF,Miss! You do not win $5 for YOURSELF,You responded too early. You do not win $5 for YOURSELF,gain,5.0,big,False,self,True,real,real,True,0.3757724,-0.4,0.0,0.1560000000000059
test4,test4_smid.csv,1,2020-01-01_00h00.00.000,SMID,2025.2.4,62.11180124,MacIntel,DBSA,Lila,14.0,YOURSELF,images/WinSmall.jpg,n,,,Correct! You win $0.20 for YOURSELF,Miss! You do not win $0.20 for YOURSELF,You responded too early. You do not win $0.20 for YOURSELF,gain,0.2,small,False,self,True,real,real,True,0.3757724,-0.2,0.0,0.21139999997615178
test4,test4_smid.csv,1,2020-01-01_00h00.00.000,SMID,2025.2.4,62.11180124,MacIntel,DBSA,Lila,15.0,NAME,images/WinBig.jpg,n,,,Correct! You win $5 for NAME,Miss! You do not win $5 for NAME,You responded too early. You do not win $5 for NAME,gain,5.0,big,True,charity,True,real,real,True,0.3757724,-0.2,5.0,0.2772000000476851
test4,test4_smid.csv,1,2020-01-01_00h00.00.000,SMID,2025.2.4,62.11180124,MacIntel,DBSA,Lila,16.0,NAME,images/LoseBig.jpg,n,,,Correct! You keep $5 for NAME,Miss! You lost $5 for NAME,You responded too early. You lost $5 for NAME,lose,5.0,big,True,charity,True,real,real,True,0.3757724,-0.2,5.0,0.2004999999999768
test4,test4_smid.csv,1,2020-01-01_00h00.00.000,SMID,2025.2.4,62.11180124,MacIntel,DBSA,Lila,17.0,NAME,images/WinBig.jpg,n,,,Correct! You win $5 for NAME,Miss! You do not win $5 for NAME,You responded too early. You do not win $5 for NAME,gain,5.0,big,True,charity,True,real,real,True,0.3757724,-0.2,10.0,0.1330000000000382
test4,test4_smid.csv,1,2020-01-01_00h00.00.000,SMID,2025.2.4,62.11180124,MacIntel,DBSA,Lila,18.0,NAME,images/LoseBig.jpg,n,,,Correct! You keep $5 for NAME,Miss! You lost $5 for NAME,You responded too early. You lost $5 for NAME,lose,5.0,big,True,charity,True,real,real,True,0.3757724,-0.2,10.0,0.21579999995230992
test4,test4_smid.csv,1,2020-01-01_00h00.00.000,SMID,2025.2.4,62.11180124,MacIntel,DBSA,Lila,19.0,YOURSELF,images/WinSmall.jpg,n,,,Correct! You win $0.20 for YOURSELF,Miss! You do not win $0.20 for YOURSELF,You responded too early. You do not win $0.20 for YOURSELF,gain,0.2,small,False,self,True,real,real,True,0.3757724,-3.33e-16,10.0,0.19360000002382094
test4,test4_smid.csv,1,2020-01-01_00h00.00.000,SMID,2025.2.4,62.11180124,MacIntel,DBSA,Lila,20.0,NAME,images/LoseSmall.jpg,n,,,Correct! You keep $0.20 for NAME,Miss! You lost $0.20 for NAME,You responded too early. You lost $0.20 for NAME,lose,0.2,small,True,charity,True,real,real,True,0.3757724,-3.33e-16,10.0,0.26600000000001955
test4,test4_smid.csv,1,2020-01-01_00h00.00.000,SMID,2025.2.4,62.11180124,MacIntel,DBSA,Lila,21.0,NAME,images/LoseSmall.jpg,n,,,Correct! You keep $0.20 for NAME,Miss! You lost $0.20 for NAME,You responded too early. You lost $0.20 for NAME,lose,0.2,small,True,charity,True,real,real,True,0.3757724,-3.33e-16,10.0,0.16599999999999682
test4,test4_smid.csv,1,2020-01-01_00h00.00.000,SMID,2025.2.4,62.11180124,MacIntel,DBSA,Lila,22.0,YOURSELF,images/LoseSmall.jpg,n,,n,Correct! You keep $0.20 for YOURSELF,Miss! You lose $0.20 for YOURSELF,You responded too early. You lose $0.20 for YOURSELF,lose,0.2,small,False,self,True,real,real,True,0.3757724,-3.33e-16,10.0,0.00029999995228990883
test4,test4_smid.csv,1,2020-01-01_00h00.00.000,SMID,2025.2.4,62.11180124,MacIntel,DBSA,Lila,23.0,YOURSELF,images/LoseSmall.jpg,n,,,Correct! You keep $0.20 for YOURSELF,Miss! You lose $0.20 for YOURSELF,You responded too early. You lose $0.20 for YOURSELF,lose,0.2,small,False,self,True,real,real,True,0.3757724,-3.33e-16,10.0,0.2342000000476787
test4,test4_smid.csv,1,2020-01-01_00h00.00.000,SMID,2025.2.4,62.11180124,MacIntel,DBSA,Lila,24.0,NAME,images/WinBig.jpg,n,,,Correct! You win $5 for NAME,Miss! You do not win $5 for NAME,You responded too early. You do not win $5 for NAME,gain,5.0,big,True,charity,True,real,real,True,0.3757724,-3.33e-16,15.0,0.13469999992850035
test4,test4_smid.csv,1,2020-01-01_00h00.00.000,SMID,2025.2.4,62.11180124,MacIntel,DBSA,Lila,25.0,YOURSELF,images/WinBig.jpg,n,,,Correct! You win $5 for YOURSELF,Miss! You do not win $5 for YOURSELF,You responded too early. You do not win $5 for YOURSELF,gain,5.0,big,False,self,True,real,real,True,0.3757724,5.0,15.0,0.2661000000238687
test4,test4_smid.csv,1,2020-01-01_00h00.00.000,SMID,2025.2.4,62.11180124,MacIntel,DBSA,Lila,26.0,NAME,images/WinSmall.jpg,n,,,Correct! You win $0.20 for NAME,Miss! You do not win $0.20 for NAME,You responded too early. You do not win $0.20 for NAME,gain,0.2,small,True,charity,True,real,real,True,0.3757724,5.0,15.2,0.24490000009535606
test4,test4_smid.csv,1,2020-01-01_00h00.00.000,SMID,2025.2.4,62.11180124,MacIntel,DBSA,Lila,27.0,YOURSELF,images/WinBig.jpg,n,,,Correct! You win $5 for YOURSELF,Miss! You do not win $5 for YOURSELF,You responded too early. You do not win $5 for YOURSELF,gain,5.0,big,False,self,True,real,real,True,0.3757724,10.0,15.2,0.11019999992845442
test4,test4_smid.csv,1,2020-01-01_00h00.00.000,SMID,2025.2.4,62.11180124,MacIntel,DBSA,Lila,28.0,YOURSELF,images/Neutral.jpg,n,,,Correct! You did not win or lose money for YOURSELF,Miss! You did not win or lose money for YOURSELF,You responded too early. You did not win or lose money for YOURSELF,neither,0.0,zero,False,self,True,real,real,True,0.3757724,10.0,15.2,0.2078000000715292
test4,test4_smid.csv,1,2020-01-01_00h00.00.000,SMID,2025.2.4,62.11180124,MacIntel,DBSA,Lila,29.0,NAME,images/Neutral.jpg,,,,Correct! You did not win or lose money for NAME,Miss! You did not win or lose money for NAME,You responded too early. You did not win or lose money for NAME,neither,0.0,zero,True,charity,False,real,real,False,0.3757724,10.0,15.2,
test4,test4_smid.csv,1,2020-01-01_00h00.00.000,SMID,2025.2.4,62.11180124,MacIntel,DBSA,Lila,30.0,NAME,images/Neutral.jpg,,n,,Correct! You did not win or lose money for NAME,Miss! You did not win or lose money for NAME,You responded too early. You did not win or lose money for NAME,neither,0.0,zero,True,charity,True,real,real,,,10.0,15.2,
test4,test4_smid.csv,1,2020-01-01_00h00.00.000,SMID,2025.2.4,62.11180124,MacIntel,DBSA,Lila,31.0,YOURSELF,images/Neutral.jpg,n,,,Correct! You did not win or lose money for YOURSELF,Miss! You did not win or lose money for YOURSELF,You responded too early. You did not win or lose money for YOURSELF,neither,0.0,zero,False,self,True,real,real,True,0.3757724,10.0,15.2,0.30220000004766234
test4,test4_smid.csv,1,2020-01-01_00h00.00.000,SMID,2025.2.4,62.11180124,MacIntel,DBSA,Lila,32.0,NAME,images/WinSmall.jpg,n,,,Correct! You win $0.20 for NAME,Miss! You do not win $0.20 for NAME,You responded too early. You do not win $0.20 for NAME,gain,0.2,small,True,charity,True,real,real,True,0.3757724,10.0,15.4,0.21649999999999636
test4,test4_smid.csv,1,2020-01-01_00h00.00.000,SMID,2025.2.4,62.11180124,MacIntel,DBSA,Lila,33.0,YOURSELF,images/LoseBig.jpg,n,,,Correct! You keep $5 for YOURSELF,Miss! You lose $5 for YOURSELF,You responded too early. You lose $5 for YOURSELF,lose,5.0,big,False,self,True,real,real,True,0.3757724,10.0,15.4,0.2536000000238232
test4,test4_smid.csv,1,2020-01-01_00h00.00.000,SMID,2025.2.4,62.11180124,MacIntel,DBSA,Lila,34.0,YOURSELF,images/LoseSmall.jpg,n,,,Correct! You keep $0.20 for YOURSELF,Miss! You lose $0.20 for YOURSELF,You responded too early. You lose $0.20 for YOURSELF,lose,0.2,small,False,self,True,real,real,True,0.3757724,10.0,15.4,0.2856000000238623
test4,test4_smid.csv,1,2020-01-01_00h00.00.000,SMID,2025.2.4,62.11180124,MacIntel,DBSA,Lila,35.0,NAME,images/WinBig.jpg,n,,,Correct! You win $5 for NAME,Miss! You do not win $5 for NAME,You responded too early. You do not win $5 for NAME,gain,5.0,big,True,charity,True,real,real,True,0.3757724,10.0,20.4,0.23439999997617633
test4,test4_smid.csv,1,2020-01-01_00h00.00.000,SMID,2025.2.4,62.11180124,MacIntel,DBSA,Lila,36.0,NAME,images/LoseSmall.jpg,n,,,Correct! You keep $0.20 for NAME,Miss! You lost $0.20 for NAME,You responded too early. You lost $0.20 for NAME,lose,0.2,small,True,charity,True,real,real,True,0.3757724,10.0,20.4,0.057700000047702815
test4,test4_smid.csv,1,2020-01-01_00h00.00.000,SMID,2025.2.4,62.11180124,MacIntel,DBSA,Lila,37.0,NAME,images/LoseBig.jpg,n,,,Correct! You keep $5 for NAME,Miss! You lost $5 for NAME,You responded too early. You lost $5 for NAME,lose,5.0,big,True,charity,True,real,real,True,0.3757724,10.0,20.4,0.23620000004768826
test4,test4_smid.csv,1,2020-01-01_00h00.00.000,SMID,2025.2.4,62.11180124,MacIntel,DBSA,Lila,38.0,YOURSELF,images/LoseSmall.jpg,n,,,Correct! You keep $0.20 for YOURSELF,Miss! You lose $0.20 for YOURSELF,You responded too early. You lose $0.20 for YOURSELF,lose,0.2,small,False,self,True,real,real,True,0.3757724,10.0,20.4,0.043200000047704634
test4,test4_smid.csv,1,2020-01-01_00h00.00.000,SMID,2025.2.4,62.11180124,MacIntel,DBSA,Lila,39.0,YOURSELF,images/Neutral.jpg,n,,,Correct! You did not win or lose money for YOURSELF,Miss! You did not win or lose money for YOURSELF,You responded too early. You did not win or lose money for YOURSELF,neither,0.0,zero,False,self,True,real,real,True,0.3757724,10.0,20.4,0.18389999997611994
test4,test4_smid.csv,1,2020-01-01_00h00.00.000,SMID,2025.2.4,62.11180124,MacIntel,DBSA,Lila,40.0,NAME,images/WinSmall.jpg,n,,,Correct! You win $0.20 for NAME,Miss! You do not win $0.20 for NAME,You responded too early. You do not win $0.20 for NAME,gain,0.2,small,True,charity,True,real,real,True,0.3757724,10.0,20.6,0.2512999999523231
test4,test4_smid.csv,1,2020-01-01_00h00.00.000,SMID,2025.2.4,62.11180124,MacIntel,DBSA,Lila,41.0,YOURSELF,images/WinSmall.jpg,n,,,Correct! You win $0.20 for YOURSELF,Miss! You do not win $0.20 for YOURSELF,You responded too early. You do not win $0.20 for YOURSELF,gain,0.2,small,False,self,True,real,real,True,0.3757724,10.2,20.6,0.25320000004768417
test4,test4_smid.csv,1,2020-01-01_00h00.00.000,SMID,2025.2.4,62.11180124,MacIntel,DBSA,Lila,42.0,NAME,images/LoseBig.jpg,n,,,Correct! You keep $5 for NAME,Miss! You lost $5 for NAME,You responded too early. You lost $5 for NAME,lose,5.0,big,True,charity,True,real,real,True,0.3757724,10.2,20.6,0.15419999992849398
test4,test4_smid.csv,1,2020-01-01_00h00.00.000,SMID,2025.2.4,62.11180124,MacIntel,DBSA,Lila,43.0,YOURSELF,images/WinBig.jpg,n,,,Correct! You win $5 for YOURSELF,Miss! You do not win $5 for YOURSELF,You responded too early. You do not win $5 for YOURSELF,gain,5.0,big,False,self,True,real,real,True,0.3757724,15.2,20.6,0.25110000002388233
test4,test4_smid.csv,1,2020-01-01_00h00.00.000,SMID,2025.2.4,62.11180124,MacIntel,DBSA,Lila,44.0,NAME,images/LoseBig.jpg,n,,,Correct! You keep $5 for NAME,Miss! You lost $5 for NAME,You responded too early. You lost $5 for NAME,lose,5.0,big,True,charity,True,real,real,True,0.3757724,15.2,20.6,0.25379999995232083
test4,test4_smid.csv,1,2020-01-01_00h00.00.000,SMID,2025.2.4,62.11180124,MacIntel,DBSA,Lila,45.0,YOURSELF,images/WinBig.jpg,n,,,Correct! You win $5 for YOURSELF,Miss! You do not win $5 for YOURSELF,You responded too early. You do not win $5 for YOURSELF,gain,5.0,big,False,self,True,real,real,True,0.334842891,20.2,20.6,0.2566000000238091
test4,test4_smid.csv,1,2020-01-01_00h00.00.000,SMID,2025.2.4,62.11180124,MacIntel,DBSA,Lila,46.0,YOURSELF,images/LoseBig.jpg,,,n,Correct! You keep $5 for YOURSELF,Miss! You lose $5 for YOURSELF,You responded too early. You lose $5 for YOURSELF,lose,5.0,big,False,self,False,real,real,False,0.294353465,15.2,20.6,
test4,test4_smid.csv,1,2020-01-01_00h00.00.000,SMID,2025.2.4,62.11180124,MacIntel,DBSA,Lila,47.0,YOURSELF,images/LoseSmall.jpg,,,n,Correct! You keep $0.20 for YOURSELF,Miss! You lose $0.20 for YOURSELF,You responded too early. You lose $0.20 for YOURSELF,lose,0.2,small,False,self,False,real,real,False,0.294353465,15.0,20.6,
test4,test4_smid.csv,1,2020-01-01_00h00.00.000,SMID,2025.2.4,62.11180124,MacIntel,DBSA,Lila,48.0,NAME,images/WinBig.jpg,n,,,Correct! You win $5 for NAME,Miss! You do not win $5 for NAME,You responded too early. You do not win $5 for NAME,gain,5.0,big,True,charity,True,real,real,True,0.294353465,15.0,25.6,0.16689999997618088
test4,test4_smid.csv,1,2020-01-01_00h00.00.000,SMID,2025.2.4,62.11180124,MacIntel,DBSA,Lila,49.0,YOURSELF,images/LoseBig.jpg,n,,,Correct! You keep $5 for YOURSELF,Miss! You lose $5 for YOURSELF,You responded too early. You lose $5 for YOURSELF,lose,5.0,big,False,self,True,real,real,True,0.294353465,15.0,25.6,0.0678999999761345
test4,test4_smid.csv,1,2020-01-01_00h00.00.000,SMID,2025.2.4,62.11180124,MacIntel,DBSA,Lila,50.0,NAME,images/LoseSmall.jpg,n,,,Correct! You keep $0.20 for NAME,Miss! You lost $0.20 for NAME,You responded too early. You lost $0.20 for NAME,lose,0.2,small,True,charity,True,real,real,True,0.294353465,15.0,25.6,0.21629999995241178
test4,test4_smid.csv,1,2020-01-01_00h00.00.000,SMID,2025.2.4,62.11180124,MacIntel,DBSA,Lila,51.0,YOURSELF,images/WinBig.jpg,n,,,Correct! You win $5 for YOURSELF,Miss! You do not win $5 for YOURSELF,You responded too early. You do not win $5 for YOURSELF,gain,5.0,big,False,self,True,real,real,True,0.294353465,20.0,25.6,0.11099999999999
test4,test4_smid.csv,1,2020-01-01_00h00.00.000,SMID,2025.2.4,62.11180124,MacIntel,DBSA,Lila,52.0,YOURSELF,images/WinBig.jpg,n,,,Correct! You win $5 for YOURSELF,Miss! You do not win $5 for YOURSELF,You responded too early. You do not win $5 for YOURSELF,gain,5.0,big,False,self,True,real,real,True,0.294353465,25.0,25.6,0.14999999999997726
test4,test4_smid.csv,1,2020-01-01_00h00.00.000,SMID,2025.2.4,62.11180124,MacIntel,DBSA,Lila,53.0,NAME,images/LoseBig.jpg,n,,,Correct! You keep $5 for NAME,Miss! You lost $5 for NAME,You responded too early. You lost $5 for NAME,lose,5.0,big,True,charity,True,real,real,True,0.294353465,25.0,25.6,0.05689999997616724
test4,test4_smid.csv,1,2020-01-01_00h00.00.000,SMID,2025.2.4,62.11180124,MacIntel,DBSA,Lila,54.0,YOURSELF,images/LoseBig.jpg,n,,,Correct! You keep $5 for YOURSELF,Miss! You lose $5 for YOURSELF,You responded too early. You lose $5 for YOURSELF,lose,5.0,big,False,self,True,real,real,True,0.294353465,25.0,25.6,0.03410000002384095
test4,test4_smid.csv,1,2020-01-01_00h00.00.000,SMID,2025.2.4,62.11180124,MacIntel,DBSA,Lila,55.0,YOURSELF,images/WinSmall.jpg,n,,,Correct! You win $0.20 for YOURSELF,Miss! You do not win $0.20 for YOURSELF,You responded too early. You do not win $0.20 for YOURSELF,gain,0.2,small,False,self,True,real,real,True,0.250179658,25.2,25.6,0.18839999997612722
test4,test4_smid.csv,1,2020-01-01_00h00.00.000,SMID,2025.2.4,62.11180124,MacIntel,DBSA,Lila,56.0,NAME,images/Neutral.jpg,,n,,Correct! You did not win or lose money for NAME,Miss! You did not win or lose money for NAME,You responded too early. You did not win or lose money for NAME,neither,0.0,zero,True,charity,True,real,real,,,25.2,25.6,
test4,test4_smid.csv,1,2020-01-01_00h00.00.000,SMID,2025.2.4,62.11180124,MacIntel,DBSA,Lila,57.0,NAME,images/LoseBig.jpg,,,n,Correct! You keep $5 for NAME,Miss! You lost $5 for NAME,You responded too early. You lost $5 for NAME,lose,5.0,big,True,charity,False,real,real,False,0.206386317,25.2,20.6,
test4,test4_smid.csv,1,2020-01-01_00h00.00.000,SMID,2025.2.4,62.11180124,MacIntel,DBSA,Lila,58.0,NAME,images/WinSmall.jpg,n,,,Correct! You win $0.20 for NAME,Miss! You do not win $0.20 for NAME,You responded too early. You do not win $0.20 for NAME,gain,0.2,small,True,charity,True,real,real,True,0.206386317,25.2,20.8,0.00029999995228990883
test4,test4_smid.csv,1,2020-01-01_00h00.00.000,SMID,2025.2.4,62.11180124,MacIntel,DBSA,Lila,59.0,YOURSELF,images/WinBig.jpg,,,,Correct! You win $5 for YOURSELF,Miss! You do not win $5 for YOURSELF,You responded too early. You do not win $5 for YOURSELF,gain,5.0,big,False,self,False,real,real,False,0.206386317,25.2,20.8,
test4,test4_smid.csv,1,2020-01-01_00h00.00.000,SMID,2025.2.4,62.11180124,MacIntel,DBSA,Lila,60.0,YOURSELF,images/LoseBig.jpg,,,n,Correct! You keep $5 for YOURSELF,Miss! You lose $5 for YOURSELF,You responded too early. You lose $5 for YOURSELF,lose,5.0,big,False,self,False,real,real,False,0.206386317,20.2,20.8,
test4,test4_smid.csv,1,2020-01-01_00h00.00.000,SMID,2025.2.4,62.11180124,MacIntel,DBSA,Lila,61.0,YOURSELF,images/LoseBig.jpg,n,,,Correct! You keep $5 for YOURSELF,Miss! You lose $5 for YOURSELF,You responded too early. You lose $5 for YOURSELF,lose,5.0,big,False,self,True,real,real,True,0.206386317,20.2,20.8,0.07960000002390188
test4,test4_smid.csv,1,2020-01-01_00h00.00.000,SMID,2025.2.4,62.11180124,MacIntel,DBSA,Lila,62.0,NAME,images/Neutral.jpg,n,,,Correct! You did not win or lose money for NAME,Miss! You did not win or lose money for NAME,You responded too early. You did not win or lose money for NAME,neither,0.0,zero,True,charity,True,real,real,True,0.206386317,20.2,20.8,0.021200000047770118
test4,test4_smid.csv,1,2020-01-01_00h00.00.000,SMID,2025.2.4,62.11180124,MacIntel,DBSA,Lila,63.0,YOURSELF,images/WinSmall.jpg,,,,Correct! You win $0.20 for YOURSELF,Miss! You do not win $0.20 for YOURSELF,You responded too early. You do not win $0.20 for YOURSELF,gain,0.2,small,False,self,False,real,real,False,0.206386317,20.2,20.8,
test4,test4_smid.csv,1,2020-01-01_00h00.00.000,SMID,2025.2.4,62.11180124,MacIntel,DBSA,Lila,64.0,NAME,images/Neutral.jpg,,,,Correct! You did not win or lose money for NAME,Miss! You did not win or lose money for NAME,You responded too early. You did not win or lose money for NAME,neither,0.0,zero,True,charity,False,real,real,False,0.206386317,20.2,20.8,
test4,test4_smid.csv,1,2020-01-01_00h00.00.000,SMID,2025.2.4,62.11180124,MacIntel,DBSA,Lila,65.0,NAME,images/Neutral.jpg,,,,Correct! You did not win or lose money for NAME,Miss! You did not win or lose money for NAME,You responded too early. You did not win or lose money for NAME,neither,0.0,zero,True,charity,False,real,real,False,0.206386317,20.2,20.8,
test4,test4_smid.csv,1,2020-01-01_00h00.00.000,SMID,2025.2.4,62.11180124,MacIntel,DBSA,Lila,66.0,NAME,images/WinSmall.jpg,n,,,Correct! You win $0.20 for NAME,Miss! You do not win $0.20 for NAME,You responded too early. You do not win $0.20 for NAME,gain,0.2,small,True,charity,True,real,real,True,0.206386317,20.2,21.0,0.06900000000007367
test4,test4_smid.csv,1,2020-01-01_00h00.00.000,SMID,2025.2.4,62.11180124,MacIntel,DBSA,Lila,67.0,NAME,images/LoseSmall.jpg,,,,Correct! You keep $0.20 for NAME,Miss! You lost $0.20 for NAME,You responded too early. You lost $0.20 for NAME,lose,0.2,small,True,charity,False,real,real,False,0.206386317,20.2,20.8,
test4,test4_smid.csv,1,2020-01-01_00h00.00.000,SMID,2025.2.4,62.11180124,MacIntel,DBSA,Lila,68.0,YOURSELF,images/WinSmall.jpg,n,,,Correct! You win $0.20 for YOURSELF,Miss! You do not win $0.20 for YOURSELF,You responded too early. You do not win $0.20 for YOURSELF,gain,0.2,small,False,self,True,real,real,True,0.206386317,20.4,20.8,0.048499999999989996
test4,test4_smid.csv,1,2020-01-01_00h00.00.000,SMID,2025.2.4,62.11180124,MacIntel,DBSA,Lila,69.0,YOURSELF,images/WinSmall.jpg,n,,,Correct! You win $0.20 for YOURSELF,Miss! You do not win $0.20 for YOURSELF,You responded too early. You do not win $0.20 for YOURSELF,gain,0.2,small,False,self,True,real,real,True,0.206386317,20.6,20.8,0.049700000047664616
test4,test4_smid.csv,1,2020-01-01_00h00.00.000,SMID,2025.2.4,62.11180124,MacIntel,DBSA,Lila,70.0,YOURSELF,images/LoseBig.jpg,,,n,Correct! You keep $5 for YOURSELF,Miss! You lose $5 for YOURSELF,You responded too early. You lose $5 for YOURSELF,lose,5.0,big,False,self,False,real,real,False,0.206386317,15.6,20.8,
test4,test4_smid.csv,1,2020-01-01_00h00.00.000,SMID,2025.2.4,62.11180124,MacIntel,DBSA,Lila,71.0,YOURSELF,images/WinBig.jpg,n,,,Correct! You win $5 for YOURSELF,Miss! You do not win $5 for YOURSELF,You responded too early. You do not win $5 for YOURSELF,gain,5.0,big,False,self,True,real,real,True,0.206386317,20.6,20.8,0.011399999976106301
test4,test4_smid.csv,1,2020-01-01_00h00.00.000,SMID,2025.2.4,62.11180124,MacIntel,DBSA,Lila,72.0,NAME,images/Neutral.jpg,,,,Correct! You did not win or lose money for NAME,Miss! You did not win or lose money for NAME,You responded too early. You did not win or lose money for NAME,neither,0.0,zero,True,charity,False,real,real,False,0.206386317,20.6,20.8,
test4,test4_smid.csv,1,2020-01-01_00h00.00.000,SMID,2025.2.4,62.11180124,MacIntel,DBSA,Lila,73.0,NAME,images/LoseBig.jpg,n,,,Correct! You keep $5 for NAME,Miss! You lost $5 for NAME,You responded too early. You lost $5 for NAME,lose,5.0,big,True,charity,True,real,real,True,0.206386317,20.6,20.8,0.0284999999998945
test4,test4_smid.csv,1,2020-01-01_00h00.00.000,SMID,2025.2.4,62.11180124,MacIntel,DBSA,Lila,74.0,YOURSELF,images/LoseSmall.jpg,,,n,Correct! You keep $0.20 for YOURSELF,Miss! You lose $0.20 for YOURSELF,You responded too early. You lose $0.20 for YOURSELF,lose,0.2,small,False,self,False,real,real,False,0.206386317,20.4,20.8,
test4,test4_smid.csv,1,2020-01-01_00h00.00.000,SMID,2025.2.4,62.11180124,MacIntel,DBSA,Lila,75.0,NAME,images/WinBig.jpg,n,,,Correct! You win $5 for NAME,Miss! You do not win $5 for NAME,You responded too early. You do not win $5 for NAME,gain,5.0,big,True,charity,True,real,real,True,0.206386317,20.4,25.8,0.04839999997625455
test4,test4_smid.csv,1,2020-01-01_00h00.00.000,SMID,2025.2.4,62.11180124,MacIntel,DBSA,Lila,76.0,NAME,images/WinBig.jpg,n,,,Correct! You win $5 for NAME,Miss! You do not win $5 for NAME,You responded too early. You do not win $5 for NAME,gain,5.0,big,True,charity,True,real,real,True,0.206386317,20.4,30.8,0.11980000007156377
test4,test4_smid.csv,1,2020-01-01_00h00.00.000,SMID,2025.2.4,62.11180124,MacIntel,DBSA,Lila,77.0,YOURSELF,images/LoseSmall.jpg,,,n,Correct! You keep $0.20 for YOURSELF,Miss! You lose $0.20 for YOURSELF,You responded too early. You lose $0.20 for YOURSELF,lose,0.2,small,False,self,False,real,real,False,0.206386317,20.2,30.8,
test4,test4_smid.csv,1,2020-01-01_00h00.00.000,SMID,2025.2.4,62.11180124,MacIntel,DBSA,Lila,78.0,NAME,images/WinBig.jpg,,,,Correct! You win $5 for NAME,Miss! You do not win $5 for NAME,You responded too early. You do not win $5 for NAME,gain,5.0,big,True,charity,False,real,real,False,0.206386317,20.2,30.8,
test4,test4_smid.csv,1,2020-01-01_00h00.00.000,SMID,2025.2.4,62.11180124,MacIntel,DBSA,Lila,79.0,NAME,images/LoseSmall.jpg,,,,Correct! You keep $0.20 for NAME,Miss! You lost $0.20 for NAME,You responded too early. You lost $0.20 for NAME,lose,0.2,small,True,charity,False,real,real,False,0.206386317,20.2,30.6,
test4,test4_smid.csv,1,2020-01-01_00h00.00.000,SMID,2025.2.4,62.11180124,MacIntel,DBSA,Lila,80.0,NAME,images/Neutral.jpg,n,,,Correct! You did not win or lose money for NAME,Miss! You did not win or lose money for NAME,You responded too early. You did not win or lose money for NAME,neither,0.0,zero,True,charity,True,real,real,True,0.206386317,20.2,30.6,0.10970000004772373
test4,test4_smid.csv,1,2020-01-01_00h00.00.000,SMID,2025.2.4,62.11180124,MacIntel,DBSA,Lila,81.0,YOURSELF,images/WinBig.jpg,,n,,Correct! You win $5 for YOURSELF,Miss! You do not win $5 for YOURSELF,You responded too early. You do not win $5 for YOURSELF,gain,5.0,big,False,self,True,real,real,,,20.2,30.6,
test4,test4_smid.csv,1,2020-01-01_00h00.00.000,SMID,2025.2.4,62.11180124,MacIntel,DBSA,Lila,82.0,YOURSELF,images/LoseBig.jpg,,,n,Correct! You keep $5 for YOURSELF,Miss! You lose $5 for YOURSELF,You responded too early. You lose $5 for YOURSELF,lose,5.0,big,False,self,False,real,real,False,0.206386317,15.2,30.6,
test4,test4_smid.csv,1,2020-01-01_00h00.00.000,SMID,2025.2.4,62.11180124,MacIntel,DBSA,Lila,83.0,YOURSELF,images/Neutral.jpg,,,n,Correct! You did not win or lose money for YOURSELF,Miss! You did not win or lose money for YOURSELF,You responded too early. You did not win or lose money for YOURSELF,neither,0.0,zero,False,self,False,real,real,False,0.206386317,15.2,30.6,
test4,test4_smid.csv,1,2020-01-01_00h00.00.000,SMID,2025.2.4,62.11180124,MacIntel,DBSA,Lila,84.0,NAME,images/LoseSmall.jpg,,,n,Correct! You keep $0.20 for NAME,Miss! You lost $0.20 for NAME,You responded too early. You lost $0.20 for NAME,lose,0.2,small,True,charity,False,real,real,False,0.206386317,15.2,30.4,
test4,test4_smid.csv,1,2020-01-01_00h00.00.000,SMID,2025.2.4,62.11180124,MacIntel,DBSA,Lila,85.0,NAME,images/Neutral.jpg,,,n,Correct! You did not win or lose money for NAME,Miss! You did not win or lose money for NAME,You responded too early. You did not win or lose money for NAME,neither,0.0,zero,True,charity,False,real,real,False,0.206386317,15.2,30.4,
test4,test4_smid.csv,1,2020-01-01_00h00.00.000,SMID,2025.2.4,62.11180124,MacIntel,DBSA,Lila,86.0,NAME,images/WinSmall.jpg,,,,Correct! You win $0.20 for NAME,Miss! You do not win $0.20 for NAME,You responded too early. You do not win $0.20 for NAME,gain,0.2,small,True,charity,False,real,real,False,0.206386317,15.2,30.4,
test4,test4_smid.csv,1,2020-01-01_00h00.00.000,SMID,2025.2.4,62.11180124,MacIntel,DBSA,Lila,87.0,NAME,images/WinBig.jpg,,,n,Correct! You win $5 for NAME,Miss! You do not win $5 for NAME,You responded too early. You do not win $5 for NAME,gain,5.0,big,True,charity,False,real,real,False,0.206386317,15.2,30.4,
test4,test4_smid.csv,1,2020-01-01_00h00.00.000,SMID,2025.2.4,62.11180124,MacIntel,DBSA,Lila,88.0,NAME,images/LoseSmall.jpg,n,,,Correct! You keep $0.20 for NAME,Miss! You lost $0.20 for NAME,You responded too early. You lost $0.20 for NAME,lose,0.2,small,True,charity,True,real,real,True,0.280572661,15.2,30.4,0.050399999976207255
test4,test4_smid.csv,1,2020-01-01_00h00.00.000,SMID,2025.2.4,62.11180124,MacIntel,DBSA,Lila,89.0,YOURSELF,images/Neutral.jpg,,,,Correct! You did not win or lose money for YOURSELF,Miss! You did not win or lose money for YOURSELF,You responded too early. You did not win or lose money for YOURSELF,neither,0.0,zero,False,self,False,real,real,False,0.280572661,15.2,30.4,
test4,test4_smid.csv,1,2020-01-01_00h00.00.000,SMID,2025.2.4,62.11180124,MacIntel,DBSA,Lila,90.0,YOURSELF,images/WinSmall.jpg,n,,,Correct! You win $0.20 for YOURSELF,Miss! You do not win $0.20 for YOURSELF,You responded too early. You do not win $0.20 for YOURSELF,gain,0.2,small,False,self,True,real,real,True,0.355361824,15.4,30.4,0.26929999995229537
test4,test4_smid.csv,1,2020-01-01_00h00.00.000,SMID,2025.2.4,62.11180124,MacIntel,DBSA,Lila,91.0,YOURSELF,images/WinBig.jpg,n,,,Correct! You win $5 for YOURSELF,Miss! You do not win $5 for YOURSELF,You responded too early. You do not win $5 for YOURSELF,gain,5.0,big,False,self,True,real,real,True,0.355361824,20.4,30.4,0.2602000000475755
test4,test4_smid.csv,1,2020-01-01_00h00.00.000,SMID,2025.2.4,62.11180124,MacIntel,DBSA,Lila,92.0,NAME,images/WinSmall.jpg,,,,Correct! You win $0.20 for NAME,Miss! You do not win $0.20 for NAME,You responded too early. You do not win $0.20 for NAME,gain,0.2,small,True,charity,False,real,real,False,0.355361824,20.4,30.4,
test4,test4_smid.csv,1,2020-01-01_00h00.00.000,SMID,2025.2.4,62.11180124,MacIntel,DBSA,Lila,93.0,NAME,images/WinSmall.jpg,n,,,Correct! You win $0.20 for NAME,Miss! You do not win $0.20 for NAME,You responded too early. You do not win $0.20 for NAME,gain,0.2,small,True,charity,True,real,real,True,0.429617644,20.4,30.6,0.2508999999761272
test4,test4_smid.csv,1,2020-01-01_00h00.00.000,SMID,2025.2.4,62.11180124,MacIntel,DBSA,Lila,94.0,YOURSELF,images/Neutral.jpg,n,,,Correct! You did not win or lose money for YOURSELF,Miss! You did not win or lose money for YOURSELF,You responded too early. You did not win or lose money for YOURSELF,neither,0.0,zero,False,self,True,real,real,True,0.429617644,20.4,30.6,0.295200000047771
test4,test4_smid.csv,1,2020-01-01_00h00.00.000,SMID,2025.2.4,62.11180124,MacIntel,DBSA,Lila,95.0,NAME,images/WinBig.jpg,n,,,Correct! You win $5 for NAME,Miss! You do not win $5 for NAME,You responded too early. You do not win $5 for NAME,gain,5.0,big,True,charity,True,real,real,True,0.429617644,20.4,35.6,0.29210000002387915
test4,test4_smid.csv,1,2020-01-01_00h00.00.000,SMID,2025.2.4,62.11180124,MacIntel,DBSA,Lila,96.0,NAME,images/LoseBig.jpg,n,,,Correct! You keep $5 for NAME,Miss! You lost $5 for NAME,You responded too early. You lost $5 for NAME,lose,5.0,big,True,charity,True,real,real,True,0.429617644,20.4,35.6,0.0989999999999327
test4,test4_smid.csv,1,2020-01-01_00h00.00.000,SMID,2025.2.4,62.11180124,MacIntel,DBSA,Lila,97.0,NAME,images/LoseBig.jpg,n,,,Correct! You keep $5 for NAME,Miss! You lost $5 for NAME,You responded too early. You lost $5 for NAME,lose,5.0,big,True,charity,True,real,real,True,0.429617644,20.4,35.6,0.12279999995234903
test4,test4_smid.csv,1,2020-01-01_00h00.00.000,SMID,2025.2.4,62.11180124,MacIntel,DBSA,Lila,98.0,YOURSELF,images/Neutral.jpg,n,,,Correct! You did not win or lose money for YOURSELF,Miss! You did not win or lose money for YOURSELF,You responded too early. You did not win or lose money for YOURSELF,neither,0.0,zero,False,self,True,real,real,True,0.429617644,20.4,35.6,0.1501000000238264
test4,test4_smid.csv,1,2020-01-01_00h00.00.000,SMID,2025.2.4,62.11180124,MacIntel,DBSA,Lila,99.0,YOURSELF,images/LoseBig.jpg,n,,,Correct! You keep $5,Miss! You lose $5,You responded too early. You lose $5,lose,5.0,big,False,self,True,real,real,True,0.429617644,20.4,35.6,0.23289999997609812
