id,filename_id,session,datetime,exp_name,software_version,framerate,stimuli,response,rt,trial,block,stim_targ_names,resp_key,stim_dur,type,stop_time,stop,stim_class,resp_class,rt_adj
example2,example,1,2025-00-00_00h00.00.000,PGNGS_shapes_600ms_v11r1,2021.1.4,59.88382538,L_square.bmp,,,0.0,1,"['L_circle.bmp', 'L_diamond.bmp']",n,0.6,go,,,,,
example2,example,1,2025-00-00_00h00.00.000,PGNGS_shapes_600ms_v11r1,2021.1.4,59.88382538,L_parallelogram.bmp,,,1.0,1,"['L_circle.bmp', 'L_diamond.bmp']",n,0.6,go,,,,,
example2,example,1,2025-00-00_00h00.00.000,PGNGS_shapes_600ms_v11r1,2021.1.4,59.88382538,L_circle.bmp,,,2.0,1,"['L_circle.bmp', 'L_diamond.bmp']",n,0.6,go,,,target,om,
example2,example,1,2025-00-00_00h00.00.000,PGNGS_shapes_600ms_v11r1,2021.1.4,59.88382538,L_HalfOval.bmp,,,3.0,1,"['L_circle.bmp', 'L_diamond.bmp']",n,0.6,go,,,,,
example2,example,1,2025-00-00_00h00.00.000,PGNGS_shapes_600ms_v11r1,2021.1.4,59.88382538,L_square.bmp,,,4.0,1,"['L_circle.bmp', 'L_diamond.bmp']",n,0.6,go,,,,,
example2,example,1,2025-00-00_00h00.00.000,PGNGS_shapes_600ms_v11r1,2021.1.4,59.88382538,L_pentagon.bmp,,,5.0,1,"['L_circle.bmp', 'L_diamond.bmp']",n,0.6,go,,,,,
example2,example,1,2025-00-00_00h00.00.000,PGNGS_shapes_600ms_v11r1,2021.1.4,59.88382538,L_diamond.bmp,n,0.4123,6.0,1,"['L_circle.bmp', 'L_diamond.bmp']",n,0.6,go,,,target,hit,0.4123
example2,example,1,2025-00-00_00h00.00.000,PGNGS_shapes_600ms_v11r1,2021.1.4,59.88382538,L_HalfOval.bmp,,,7.0,1,"['L_circle.bmp', 'L_diamond.bmp']",n,0.6,go,,,,,
example2,example,1,2025-00-00_00h00.00.000,PGNGS_shapes_600ms_v11r1,2021.1.4,59.88382538,L_parallelogram.bmp,,,8.0,1,"['L_circle.bmp', 'L_diamond.bmp']",n,0.6,go,,,,,
example2,example,1,2025-00-00_00h00.00.000,PGNGS_shapes_600ms_v11r1,2021.1.4,59.88382538,L_pentagon.bmp,,,9.0,1,"['L_circle.bmp', 'L_diamond.bmp']",n,0.6,go,,,,,
example2,example,1,2025-00-00_00h00.00.000,PGNGS_shapes_600ms_v11r1,2021.1.4,59.88382538,L_HalfOval.bmp,,,10.0,1,"['L_circle.bmp', 'L_diamond.bmp']",n,0.6,go,,,,,
example2,example,1,2025-00-00_00h00.00.000,PGNGS_shapes_600ms_v11r1,2021.1.4,59.88382538,L_square.bmp,n,0.4872,11.0,1,"['L_circle.bmp', 'L_diamond.bmp']",n,0.6,go,,,,randcom,0.4872
example2,example,1,2025-00-00_00h00.00.000,PGNGS_shapes_600ms_v11r1,2021.1.4,59.88382538,L_parallelogram.bmp,,,12.0,1,"['L_circle.bmp', 'L_diamond.bmp']",n,0.6,go,,,,,
example2,example,1,2025-00-00_00h00.00.000,PGNGS_shapes_600ms_v11r1,2021.1.4,59.88382538,L_diamond.bmp,,,13.0,1,"['L_circle.bmp', 'L_diamond.bmp']",n,0.6,go,,,target,hit,0.6687
example2,example,1,2025-00-00_00h00.00.000,PGNGS_shapes_600ms_v11r1,2021.1.4,59.88382538,L_pentagon.bmp,n,0.0687,14.0,1,"['L_circle.bmp', 'L_diamond.bmp']",n,0.6,go,,,,,
example2,example,1,2025-00-00_00h00.00.000,PGNGS_shapes_600ms_v11r1,2021.1.4,59.88382538,L_square.bmp,,,15.0,1,"['L_circle.bmp', 'L_diamond.bmp']",n,0.6,go,,,,,
example2,example,1,2025-00-00_00h00.00.000,PGNGS_shapes_600ms_v11r1,2021.1.4,59.88382538,L_parallelogram.bmp,,,16.0,1,"['L_circle.bmp', 'L_diamond.bmp']",n,0.6,go,,,,,
example2,example,1,2025-00-00_00h00.00.000,PGNGS_shapes_600ms_v11r1,2021.1.4,59.88382538,L_diamond.bmp,,,17.0,1,"['L_circle.bmp', 'L_diamond.bmp']",n,0.6,go,,,target,om,
example2,example,1,2025-00-00_00h00.00.000,PGNGS_shapes_600ms_v11r1,2021.1.4,59.88382538,L_pentagon.bmp,,,18.0,1,"['L_circle.bmp', 'L_diamond.bmp']",n,0.6,go,,,,,
example2,example,1,2025-00-00_00h00.00.000,PGNGS_shapes_600ms_v11r1,2021.1.4,59.88382538,L_HalfOval.bmp,,,19.0,1,"['L_circle.bmp', 'L_diamond.bmp']",n,0.6,go,,,,,
example2,example,1,2025-00-00_00h00.00.000,PGNGS_shapes_600ms_v11r1,2021.1.4,59.88382538,L_square.bmp,,,20.0,1,"['L_circle.bmp', 'L_diamond.bmp']",n,0.6,go,,,,,
example2,example,1,2025-00-00_00h00.00.000,PGNGS_shapes_600ms_v11r1,2021.1.4,59.88382538,L_pentagon.bmp,,,21.0,1,"['L_circle.bmp', 'L_diamond.bmp']",n,0.6,go,,,,,
example2,example,1,2025-00-00_00h00.00.000,PGNGS_shapes_600ms_v11r1,2021.1.4,59.88382538,L_parallelogram.bmp,,,22.0,1,"['L_circle.bmp', 'L_diamond.bmp']",n,0.6,go,,,,,
example2,example,1,2025-00-00_00h00.00.000,PGNGS_shapes_600ms_v11r1,2021.1.4,59.88382538,L_HalfOval.bmp,,,23.0,1,"['L_circle.bmp', 'L_diamond.bmp']",n,0.6,go,,,,,
example2,example,1,2025-00-00_00h00.00.000,PGNGS_shapes_600ms_v11r1,2021.1.4,59.88382538,L_square.bmp,,,24.0,1,"['L_circle.bmp', 'L_diamond.bmp']",n,0.6,go,,,,,
example2,example,1,2025-00-00_00h00.00.000,PGNGS_shapes_600ms_v11r1,2021.1.4,59.88382538,L_parallelogram.bmp,,,25.0,1,"['L_circle.bmp', 'L_diamond.bmp']",n,0.6,go,,,,,
example2,example,1,2025-00-00_00h00.00.000,PGNGS_shapes_600ms_v11r1,2021.1.4,59.88382538,L_HalfOval.bmp,,,26.0,1,"['L_circle.bmp', 'L_diamond.bmp']",n,0.6,go,,,,,
example2,example,1,2025-00-00_00h00.00.000,PGNGS_shapes_600ms_v11r1,2021.1.4,59.88382538,L_square.bmp,,,27.0,1,"['L_circle.bmp', 'L_diamond.bmp']",n,0.6,go,,,,,
example2,example,1,2025-00-00_00h00.00.000,PGNGS_shapes_600ms_v11r1,2021.1.4,59.88382538,L_parallelogram.bmp,,,28.0,1,"['L_circle.bmp', 'L_diamond.bmp']",n,0.6,go,,,,,
example2,example,1,2025-00-00_00h00.00.000,PGNGS_shapes_600ms_v11r1,2021.1.4,59.88382538,L_pentagon.bmp,,,29.0,1,"['L_circle.bmp', 'L_diamond.bmp']",n,0.6,go,,,,,
example2,example,1,2025-00-00_00h00.00.000,PGNGS_shapes_600ms_v11r1,2021.1.4,59.88382538,L_HalfOval.bmp,,,30.0,1,"['L_circle.bmp', 'L_diamond.bmp']",n,0.6,go,,,,,
example2,example,1,2025-00-00_00h00.00.000,PGNGS_shapes_600ms_v11r1,2021.1.4,59.88382538,L_square.bmp,,,31.0,1,"['L_circle.bmp', 'L_diamond.bmp']",n,0.6,go,,,,,
example2,example,1,2025-00-00_00h00.00.000,PGNGS_shapes_600ms_v11r1,2021.1.4,59.88382538,L_parallelogram.bmp,,,32.0,1,"['L_circle.bmp', 'L_diamond.bmp']",n,0.6,go,,,,,
example2,example,1,2025-00-00_00h00.00.000,PGNGS_shapes_600ms_v11r1,2021.1.4,59.88382538,L_pentagon.bmp,,,33.0,1,"['L_circle.bmp', 'L_diamond.bmp']",n,0.6,go,,,,,
example2,example,1,2025-00-00_00h00.00.000,PGNGS_shapes_600ms_v11r1,2021.1.4,59.88382538,L_diamond.bmp,n,0.4392,34.0,1,"['L_circle.bmp', 'L_diamond.bmp']",n,0.6,go,,,target,hit,0.4392
example2,example,1,2025-00-00_00h00.00.000,PGNGS_shapes_600ms_v11r1,2021.1.4,59.88382538,L_pentagon.bmp,,,35.0,1,"['L_circle.bmp', 'L_diamond.bmp']",n,0.6,go,,,,,
example2,example,1,2025-00-00_00h00.00.000,PGNGS_shapes_600ms_v11r1,2021.1.4,59.88382538,L_parallelogram.bmp,,,36.0,1,"['L_circle.bmp', 'L_diamond.bmp']",n,0.6,go,,,,,
example2,example,1,2025-00-00_00h00.00.000,PGNGS_shapes_600ms_v11r1,2021.1.4,59.88382538,L_diamond.bmp,n,0.5336,37.0,1,"['L_circle.bmp', 'L_diamond.bmp']",n,0.6,go,,,target,hit,0.5336
example2,example,1,2025-00-00_00h00.00.000,PGNGS_shapes_600ms_v11r1,2021.1.4,59.88382538,L_pentagon.bmp,,,38.0,1,"['L_circle.bmp', 'L_diamond.bmp']",n,0.6,go,,,,,
example2,example,1,2025-00-00_00h00.00.000,PGNGS_shapes_600ms_v11r1,2021.1.4,59.88382538,L_HalfOval.bmp,,,39.0,1,"['L_circle.bmp', 'L_diamond.bmp']",n,0.6,go,,,,,
example2,example,1,2025-00-00_00h00.00.000,PGNGS_shapes_600ms_v11r1,2021.1.4,59.88382538,L_parallelogram.bmp,,,40.0,1,"['L_circle.bmp', 'L_diamond.bmp']",n,0.6,go,,,,,
example2,example,1,2025-00-00_00h00.00.000,PGNGS_shapes_600ms_v11r1,2021.1.4,59.88382538,L_circle.bmp,n,0.4608,41.0,1,"['L_circle.bmp', 'L_diamond.bmp']",n,0.6,go,,,target,hit,0.4608
example2,example,1,2025-00-00_00h00.00.000,PGNGS_shapes_600ms_v11r1,2021.1.4,59.88382538,L_pentagon.bmp,,,42.0,1,"['L_circle.bmp', 'L_diamond.bmp']",n,0.6,go,,,,,
example2,example,1,2025-00-00_00h00.00.000,PGNGS_shapes_600ms_v11r1,2021.1.4,59.88382538,L_square.bmp,,,43.0,1,"['L_circle.bmp', 'L_diamond.bmp']",n,0.6,go,,,,,
example2,example,1,2025-00-00_00h00.00.000,PGNGS_shapes_600ms_v11r1,2021.1.4,59.88382538,L_HalfOval.bmp,,,44.0,1,"['L_circle.bmp', 'L_diamond.bmp']",n,0.6,go,,,,,
example2,example,1,2025-00-00_00h00.00.000,PGNGS_shapes_600ms_v11r1,2021.1.4,59.88382538,L_circle.bmp,,,45.0,1,"['L_circle.bmp', 'L_diamond.bmp']",n,0.6,go,,,target,om,
example2,example,1,2025-00-00_00h00.00.000,PGNGS_shapes_600ms_v11r1,2021.1.4,59.88382538,L_square.bmp,,,46.0,1,"['L_circle.bmp', 'L_diamond.bmp']",n,0.6,go,,,,,
example2,example,1,2025-00-00_00h00.00.000,PGNGS_shapes_600ms_v11r1,2021.1.4,59.88382538,L_HalfOval.bmp,,,47.0,1,"['L_circle.bmp', 'L_diamond.bmp']",n,0.6,go,,,,,
example2,example,1,2025-00-00_00h00.00.000,PGNGS_shapes_600ms_v11r1,2021.1.4,59.88382538,L_parallelogram.bmp,,,48.0,1,"['L_circle.bmp', 'L_diamond.bmp']",n,0.6,go,,,,,
example2,example,1,2025-00-00_00h00.00.000,PGNGS_shapes_600ms_v11r1,2021.1.4,59.88382538,L_square.bmp,,,49.0,1,"['L_circle.bmp', 'L_diamond.bmp']",n,0.6,go,,,,,
example2,example,1,2025-00-00_00h00.00.000,PGNGS_shapes_600ms_v11r1,2021.1.4,59.88382538,L_pentagon.bmp,,,50.0,1,"['L_circle.bmp', 'L_diamond.bmp']",n,0.6,go,,,,,
example2,example,1,2025-00-00_00h00.00.000,PGNGS_shapes_600ms_v11r1,2021.1.4,59.88382538,L_HalfOval.bmp,,,51.0,1,"['L_circle.bmp', 'L_diamond.bmp']",n,0.6,go,,,,,
example2,example,1,2025-00-00_00h00.00.000,PGNGS_shapes_600ms_v11r1,2021.1.4,59.88382538,L_parallelogram.bmp,,,52.0,1,"['L_circle.bmp', 'L_diamond.bmp']",n,0.6,go,,,,,
example2,example,1,2025-00-00_00h00.00.000,PGNGS_shapes_600ms_v11r1,2021.1.4,59.88382538,L_pentagon.bmp,,,53.0,1,"['L_circle.bmp', 'L_diamond.bmp']",n,0.6,go,,,,,
example2,example,1,2025-00-00_00h00.00.000,PGNGS_shapes_600ms_v11r1,2021.1.4,59.88382538,L_HalfOval.bmp,,,54.0,1,"['L_circle.bmp', 'L_diamond.bmp']",n,0.6,go,,,,,
example2,example,1,2025-00-00_00h00.00.000,PGNGS_shapes_600ms_v11r1,2021.1.4,59.88382538,L_diamond.bmp,,,55.0,1,"['L_circle.bmp', 'L_diamond.bmp']",n,0.6,go,,,target,hit,0.7990999999999999
example2,example,1,2025-00-00_00h00.00.000,PGNGS_shapes_600ms_v11r1,2021.1.4,59.88382538,L_parallelogram.bmp,n,0.1991,56.0,1,"['L_circle.bmp', 'L_diamond.bmp']",n,0.6,go,,,,,
example2,example,1,2025-00-00_00h00.00.000,PGNGS_shapes_600ms_v11r1,2021.1.4,59.88382538,L_HalfOval.bmp,,,57.0,1,"['L_circle.bmp', 'L_diamond.bmp']",n,0.6,go,,,,,
example2,example,1,2025-00-00_00h00.00.000,PGNGS_shapes_600ms_v11r1,2021.1.4,59.88382538,L_circle.bmp,n,0.5205,58.0,1,"['L_circle.bmp', 'L_diamond.bmp']",n,0.6,go,,,target,hit,0.5205
example2,example,1,2025-00-00_00h00.00.000,PGNGS_shapes_600ms_v11r1,2021.1.4,59.88382538,L_parallelogram.bmp,,,59.0,1,"['L_circle.bmp', 'L_diamond.bmp']",n,0.6,go,,,,,
example2,example,1,2025-00-00_00h00.00.000,PGNGS_shapes_600ms_v11r1,2021.1.4,59.88382538,L_square.bmp,,,60.0,1,"['L_circle.bmp', 'L_diamond.bmp']",n,0.6,go,,,,,
example2,example,1,2025-00-00_00h00.00.000,PGNGS_shapes_600ms_v11r1,2021.1.4,59.88382538,L_HalfOval.bmp,,,61.0,1,"['L_circle.bmp', 'L_diamond.bmp']",n,0.6,go,,,,,
example2,example,1,2025-00-00_00h00.00.000,PGNGS_shapes_600ms_v11r1,2021.1.4,59.88382538,L_square.bmp,,,62.0,1,"['L_circle.bmp', 'L_diamond.bmp']",n,0.6,go,,,,,
example2,example,1,2025-00-00_00h00.00.000,PGNGS_shapes_600ms_v11r1,2021.1.4,59.88382538,L_pentagon.bmp,,,63.0,1,"['L_circle.bmp', 'L_diamond.bmp']",n,0.6,go,,,,,
example2,example,1,2025-00-00_00h00.00.000,PGNGS_shapes_600ms_v11r1,2021.1.4,59.88382538,L_circle.bmp,,,64.0,1,"['L_circle.bmp', 'L_diamond.bmp']",n,0.6,go,,,target,om,
example2,example,1,2025-00-00_00h00.00.000,PGNGS_shapes_600ms_v11r1,2021.1.4,59.88382538,L_parallelogram.bmp,,,65.0,1,"['L_circle.bmp', 'L_diamond.bmp']",n,0.6,go,,,,,
example2,example,1,2025-00-00_00h00.00.000,PGNGS_shapes_600ms_v11r1,2021.1.4,59.88382538,L_square.bmp,,,66.0,1,"['L_circle.bmp', 'L_diamond.bmp']",n,0.6,go,,,,,
example2,example,1,2025-00-00_00h00.00.000,PGNGS_shapes_600ms_v11r1,2021.1.4,59.88382538,L_circle.bmp,,,67.0,1,"['L_circle.bmp', 'L_diamond.bmp']",n,0.6,go,,,target,om,
example2,example,1,2025-00-00_00h00.00.000,PGNGS_shapes_600ms_v11r1,2021.1.4,59.88382538,L_square.bmp,,,68.0,1,"['L_circle.bmp', 'L_diamond.bmp']",n,0.6,go,,,,,
example2,example,1,2025-00-00_00h00.00.000,PGNGS_shapes_600ms_v11r1,2021.1.4,59.88382538,L_parallelogram.bmp,,,69.0,1,"['L_circle.bmp', 'L_diamond.bmp']",n,0.6,go,,,,,
example2,example,1,2025-00-00_00h00.00.000,PGNGS_shapes_600ms_v11r1,2021.1.4,59.88382538,L_pentagon.bmp,,,70.0,1,"['L_circle.bmp', 'L_diamond.bmp']",n,0.6,go,,,,,
example2,example,1,2025-00-00_00h00.00.000,PGNGS_shapes_600ms_v11r1,2021.1.4,59.88382538,L_HalfOval.bmp,,,71.0,1,"['L_circle.bmp', 'L_diamond.bmp']",n,0.6,go,,,,,
example2,example,1,2025-00-00_00h00.00.000,PGNGS_shapes_600ms_v11r1,2021.1.4,59.88382538,L_diamond.bmp,,,72.0,1,"['L_circle.bmp', 'L_diamond.bmp']",n,0.6,go,,,target,om,
example2,example,1,2025-00-00_00h00.00.000,PGNGS_shapes_600ms_v11r1,2021.1.4,59.88382538,L_HalfOval.bmp,,,73.0,1,"['L_circle.bmp', 'L_diamond.bmp']",n,0.6,go,,,,,
example2,example,1,2025-00-00_00h00.00.000,PGNGS_shapes_600ms_v11r1,2021.1.4,59.88382538,L_pentagon.bmp,,,74.0,1,"['L_circle.bmp', 'L_diamond.bmp']",n,0.6,go,,,,,
example2,example,1,2025-00-00_00h00.00.000,PGNGS_shapes_600ms_v11r1,2021.1.4,59.88382538,L_square.bmp,,,75.0,1,"['L_circle.bmp', 'L_diamond.bmp']",n,0.6,go,,,,,
example2,example,1,2025-00-00_00h00.00.000,PGNGS_shapes_600ms_v11r1,2021.1.4,59.88382538,L_parallelogram.bmp,,,76.0,1,"['L_circle.bmp', 'L_diamond.bmp']",n,0.6,go,,,,,
example2,example,1,2025-00-00_00h00.00.000,PGNGS_shapes_600ms_v11r1,2021.1.4,59.88382538,L_square.bmp,,,77.0,1,"['L_circle.bmp', 'L_diamond.bmp']",n,0.6,go,,,,,
example2,example,1,2025-00-00_00h00.00.000,PGNGS_shapes_600ms_v11r1,2021.1.4,59.88382538,L_circle.bmp,,,78.0,1,"['L_circle.bmp', 'L_diamond.bmp']",n,0.6,go,,,target,om,
example2,example,1,2025-00-00_00h00.00.000,PGNGS_shapes_600ms_v11r1,2021.1.4,59.88382538,L_pentagon.bmp,,,79.0,1,"['L_circle.bmp', 'L_diamond.bmp']",n,0.6,go,,,,,
example2,example,1,2025-00-00_00h00.00.000,PGNGS_shapes_600ms_v11r1,2021.1.4,59.88382538,L_parallelogram.bmp,,,80.0,1,"['L_circle.bmp', 'L_diamond.bmp']",n,0.6,go,,,,,
example2,example,1,2025-00-00_00h00.00.000,PGNGS_shapes_600ms_v11r1,2021.1.4,59.88382538,L_HalfOval.bmp,,,81.0,1,"['L_circle.bmp', 'L_diamond.bmp']",n,0.6,go,,,,,
example2,example,1,2025-00-00_00h00.00.000,PGNGS_shapes_600ms_v11r1,2021.1.4,59.88382538,L_square.bmp,,,82.0,1,"['L_circle.bmp', 'L_diamond.bmp']",n,0.6,go,,,,,
example2,example,1,2025-00-00_00h00.00.000,PGNGS_shapes_600ms_v11r1,2021.1.4,59.88382538,L_parallelogram.bmp,,,83.0,1,"['L_circle.bmp', 'L_diamond.bmp']",n,0.6,go,,,,,
example2,example,1,2025-00-00_00h00.00.000,PGNGS_shapes_600ms_v11r1,2021.1.4,59.88382538,L_circle.bmp,,,84.0,1,"['L_circle.bmp', 'L_diamond.bmp']",n,0.6,go,,,target,om,
example2,example,1,2025-00-00_00h00.00.000,PGNGS_shapes_600ms_v11r1,2021.1.4,59.88382538,L_pentagon.bmp,,,85.0,1,"['L_circle.bmp', 'L_diamond.bmp']",n,0.6,go,,,,,
example2,example,1,2025-00-00_00h00.00.000,PGNGS_shapes_600ms_v11r1,2021.1.4,59.88382538,L_parallelogram.bmp,,,86.0,1,"['L_circle.bmp', 'L_diamond.bmp']",n,0.6,go,,,,,
example2,example,1,2025-00-00_00h00.00.000,PGNGS_shapes_600ms_v11r1,2021.1.4,59.88382538,L_diamond.bmp,,,87.0,1,"['L_circle.bmp', 'L_diamond.bmp']",n,0.6,go,,,target,om,
example2,example,1,2025-00-00_00h00.00.000,PGNGS_shapes_600ms_v11r1,2021.1.4,59.88382538,L_parallelogram.bmp,,,88.0,1,"['L_circle.bmp', 'L_diamond.bmp']",n,0.6,go,,,,,
example2,example,1,2025-00-00_00h00.00.000,PGNGS_shapes_600ms_v11r1,2021.1.4,59.88382538,L_HalfOval.bmp,,,89.0,1,"['L_circle.bmp', 'L_diamond.bmp']",n,0.6,go,,,,,
example2,example,1,2025-00-00_00h00.00.000,PGNGS_shapes_600ms_v11r1,2021.1.4,59.88382538,L_pentagon.bmp,,,90.0,1,"['L_circle.bmp', 'L_diamond.bmp']",n,0.6,go,,,,,
example2,example,1,2025-00-00_00h00.00.000,PGNGS_shapes_600ms_v11r1,2021.1.4,59.88382538,L_parallelogram.bmp,,,91.0,1,"['L_circle.bmp', 'L_diamond.bmp']",n,0.6,go,,,,,
example2,example,1,2025-00-00_00h00.00.000,PGNGS_shapes_600ms_v11r1,2021.1.4,59.88382538,L_pentagon.bmp,,,92.0,1,"['L_circle.bmp', 'L_diamond.bmp']",n,0.6,go,,,,,
example2,example,1,2025-00-00_00h00.00.000,PGNGS_shapes_600ms_v11r1,2021.1.4,59.88382538,L_circle.bmp,,,93.0,1,"['L_circle.bmp', 'L_diamond.bmp']",n,0.6,go,,,target,om,
example2,example,1,2025-00-00_00h00.00.000,PGNGS_shapes_600ms_v11r1,2021.1.4,59.88382538,L_pentagon.bmp,,,94.0,1,"['L_circle.bmp', 'L_diamond.bmp']",n,0.6,go,,,,,
example2,example,1,2025-00-00_00h00.00.000,PGNGS_shapes_600ms_v11r1,2021.1.4,59.88382538,L_square.bmp,,,95.0,1,"['L_circle.bmp', 'L_diamond.bmp']",n,0.6,go,,,,,
example2,example,1,2025-00-00_00h00.00.000,PGNGS_shapes_600ms_v11r1,2021.1.4,59.88382538,L_parallelogram.bmp,,,96.0,1,"['L_circle.bmp', 'L_diamond.bmp']",n,0.6,go,,,,,
example2,example,1,2025-00-00_00h00.00.000,PGNGS_shapes_600ms_v11r1,2021.1.4,59.88382538,L_HalfOval.bmp,,,97.0,1,"['L_circle.bmp', 'L_diamond.bmp']",n,0.6,go,,,,,
example2,example,1,2025-00-00_00h00.00.000,PGNGS_shapes_600ms_v11r1,2021.1.4,59.88382538,L_pentagon.bmp,,,98.0,1,"['L_circle.bmp', 'L_diamond.bmp']",n,0.6,go,,,,,
example2,example,1,2025-00-00_00h00.00.000,PGNGS_shapes_600ms_v11r1,2021.1.4,59.88382538,L_square.bmp,,,99.0,1,"['L_circle.bmp', 'L_diamond.bmp']",n,0.6,go,,,,,
example2,example,1,2025-00-00_00h00.00.000,PGNGS_shapes_600ms_v11r1,2021.1.4,59.88382538,L_HalfOval.bmp,,,100.0,1,"['L_circle.bmp', 'L_diamond.bmp']",n,0.6,go,,,,,
example2,example,1,2025-00-00_00h00.00.000,PGNGS_shapes_600ms_v11r1,2021.1.4,59.88382538,L_parallelogram.bmp,,,101.0,1,"['L_circle.bmp', 'L_diamond.bmp']",n,0.6,go,,,,,
example2,example,1,2025-00-00_00h00.00.000,PGNGS_shapes_600ms_v11r1,2021.1.4,59.88382538,L_square.bmp,,,102.0,1,"['L_circle.bmp', 'L_diamond.bmp']",n,0.6,go,,,,,
example2,example,1,2025-00-00_00h00.00.000,PGNGS_shapes_600ms_v11r1,2021.1.4,59.88382538,L_pentagon.bmp,,,103.0,1,"['L_circle.bmp', 'L_diamond.bmp']",n,0.6,go,,,,,
example2,example,1,2025-00-00_00h00.00.000,PGNGS_shapes_600ms_v11r1,2021.1.4,59.88382538,L_HalfOval.bmp,,,104.0,1,"['L_circle.bmp', 'L_diamond.bmp']",n,0.6,go,,,,,
example2,example,1,2025-00-00_00h00.00.000,PGNGS_shapes_600ms_v11r1,2021.1.4,59.88382538,L_diamond.bmp,n,0.4486,105.0,1,"['L_circle.bmp', 'L_diamond.bmp']",n,0.6,go,,,target,hit,0.4486
example2,example,1,2025-00-00_00h00.00.000,PGNGS_shapes_600ms_v11r1,2021.1.4,59.88382538,L_pentagon.bmp,,,106.0,1,"['L_circle.bmp', 'L_diamond.bmp']",n,0.6,go,,,,,
example2,example,1,2025-00-00_00h00.00.000,PGNGS_shapes_600ms_v11r1,2021.1.4,59.88382538,L_parallelogram.bmp,,,107.0,1,"['L_circle.bmp', 'L_diamond.bmp']",n,0.6,go,,,,,
example2,example,1,2025-00-00_00h00.00.000,PGNGS_shapes_600ms_v11r1,2021.1.4,59.88382538,L_square.bmp,,,108.0,1,"['L_circle.bmp', 'L_diamond.bmp']",n,0.6,go,,,,,
example2,example,1,2025-00-00_00h00.00.000,PGNGS_shapes_600ms_v11r1,2021.1.4,59.88382538,L_HalfOval.bmp,,,109.0,1,"['L_circle.bmp', 'L_diamond.bmp']",n,0.6,go,,,,,
example2,example,1,2025-00-00_00h00.00.000,PGNGS_shapes_600ms_v11r1,2021.1.4,59.88382538,L_parallelogram.bmp,,,110.0,1,"['L_circle.bmp', 'L_diamond.bmp']",n,0.6,go,,,,,
example2,example,1,2025-00-00_00h00.00.000,PGNGS_shapes_600ms_v11r1,2021.1.4,59.88382538,L_pentagon.bmp,,,111.0,1,"['L_circle.bmp', 'L_diamond.bmp']",n,0.6,go,,,,,
example2,example,1,2025-00-00_00h00.00.000,PGNGS_shapes_600ms_v11r1,2021.1.4,59.88382538,L_square.bmp,,,112.0,1,"['L_circle.bmp', 'L_diamond.bmp']",n,0.6,go,,,,,
example2,example,1,2025-00-00_00h00.00.000,PGNGS_shapes_600ms_v11r1,2021.1.4,59.88382538,L_HalfOval.bmp,,,113.0,1,"['L_circle.bmp', 'L_diamond.bmp']",n,0.6,go,,,,,
example2,example,1,2025-00-00_00h00.00.000,PGNGS_shapes_600ms_v11r1,2021.1.4,59.88382538,L_pentagon.bmp,,,114.0,1,"['L_circle.bmp', 'L_diamond.bmp']",n,0.6,go,,,,,
example2,example,1,2025-00-00_00h00.00.000,PGNGS_shapes_600ms_v11r1,2021.1.4,59.88382538,L_square.bmp,,,115.0,1,"['L_circle.bmp', 'L_diamond.bmp']",n,0.6,go,,,,,
example2,example,1,2025-00-00_00h00.00.000,PGNGS_shapes_600ms_v11r1,2021.1.4,59.88382538,L_diamond.bmp,,,116.0,1,"['L_circle.bmp', 'L_diamond.bmp']",n,0.6,go,,,target,om,
example2,example,1,2025-00-00_00h00.00.000,PGNGS_shapes_600ms_v11r1,2021.1.4,59.88382538,L_HalfOval.bmp,,,117.0,1,"['L_circle.bmp', 'L_diamond.bmp']",n,0.6,go,,,,,
example2,example,1,2025-00-00_00h00.00.000,PGNGS_shapes_600ms_v11r1,2021.1.4,59.88382538,L_square.bmp,,,118.0,1,"['L_circle.bmp', 'L_diamond.bmp']",n,0.6,go,,,,,
example2,example,1,2025-00-00_00h00.00.000,PGNGS_shapes_600ms_v11r1,2021.1.4,59.88382538,L_pentagon.bmp,,,119.0,1,"['L_circle.bmp', 'L_diamond.bmp']",n,0.6,go,,,,,
example2,example,1,2025-00-00_00h00.00.000,PGNGS_shapes_600ms_v11r1,2021.1.4,59.88382538,L_diamond.bmp,n,0.5492,120.0,1,"['L_circle.bmp', 'L_diamond.bmp']",n,0.6,go,,,target,hit,0.5492
example2,example,1,2025-00-00_00h00.00.000,PGNGS_shapes_600ms_v11r1,2021.1.4,59.88382538,L_parallelogram.bmp,,,121.0,1,"['L_circle.bmp', 'L_diamond.bmp']",n,0.6,go,,,,,
example2,example,1,2025-00-00_00h00.00.000,PGNGS_shapes_600ms_v11r1,2021.1.4,59.88382538,L_HalfOval.bmp,,,122.0,1,"['L_circle.bmp', 'L_diamond.bmp']",n,0.6,go,,,,,
example2,example,1,2025-00-00_00h00.00.000,PGNGS_shapes_600ms_v11r1,2021.1.4,59.88382538,L_circle.bmp,,,123.0,1,"['L_circle.bmp', 'L_diamond.bmp']",n,0.6,go,,,target,om,
example2,example,1,2025-00-00_00h00.00.000,PGNGS_shapes_600ms_v11r1,2021.1.4,59.88382538,L_pentagon.bmp,,,124.0,1,"['L_circle.bmp', 'L_diamond.bmp']",n,0.6,go,,,,,
example2,example,1,2025-00-00_00h00.00.000,PGNGS_shapes_600ms_v11r1,2021.1.4,59.88382538,L_parallelogram.bmp,,,125.0,1,"['L_circle.bmp', 'L_diamond.bmp']",n,0.6,go,,,,,
example2,example,1,2025-00-00_00h00.00.000,PGNGS_shapes_600ms_v11r1,2021.1.4,59.88382538,L_square.bmp,,,126.0,1,"['L_circle.bmp', 'L_diamond.bmp']",n,0.6,go,,,,,
example2,example,1,2025-00-00_00h00.00.000,PGNGS_shapes_600ms_v11r1,2021.1.4,59.88382538,L_pentagon.bmp,,,127.0,1,"['L_circle.bmp', 'L_diamond.bmp']",n,0.6,go,,,,,
example2,example,1,2025-00-00_00h00.00.000,PGNGS_shapes_600ms_v11r1,2021.1.4,59.88382538,L_square.bmp,,,128.0,1,"['L_circle.bmp', 'L_diamond.bmp']",n,0.6,go,,,,,
example2,example,1,2025-00-00_00h00.00.000,PGNGS_shapes_600ms_v11r1,2021.1.4,59.88382538,L_HalfOval.bmp,,,129.0,1,"['L_circle.bmp', 'L_diamond.bmp']",n,0.6,go,,,,,
example2,example,1,2025-00-00_00h00.00.000,PGNGS_shapes_600ms_v11r1,2021.1.4,59.88382538,L_square.bmp,,,130.0,1,"['L_circle.bmp', 'L_diamond.bmp']",n,0.6,go,,,,,
example2,example,1,2025-00-00_00h00.00.000,PGNGS_shapes_600ms_v11r1,2021.1.4,59.88382538,L_parallelogram.bmp,,,131.0,1,"['L_circle.bmp', 'L_diamond.bmp']",n,0.6,go,,,,,
example2,example,1,2025-00-00_00h00.00.000,PGNGS_shapes_600ms_v11r1,2021.1.4,59.88382538,L_pentagon.bmp,,,132.0,1,"['L_circle.bmp', 'L_diamond.bmp']",n,0.6,go,,,,,
example2,example,1,2025-00-00_00h00.00.000,PGNGS_shapes_600ms_v11r1,2021.1.4,59.88382538,L_square.bmp,,,133.0,1,"['L_circle.bmp', 'L_diamond.bmp']",n,0.6,go,,,,,
example2,example,1,2025-00-00_00h00.00.000,PGNGS_shapes_600ms_v11r1,2021.1.4,59.88382538,L_HalfOval.bmp,,,134.0,1,"['L_circle.bmp', 'L_diamond.bmp']",n,0.6,go,,,,,
example2,example,1,2025-00-00_00h00.00.000,PGNGS_shapes_600ms_v11r1,2021.1.4,59.88382538,L_circle.bmp,,,135.0,1,"['L_circle.bmp', 'L_diamond.bmp']",n,0.6,go,,,target,om,
example2,example,1,2025-00-00_00h00.00.000,PGNGS_shapes_600ms_v11r1,2021.1.4,59.88382538,L_pentagon.bmp,,,136.0,1,"['L_circle.bmp', 'L_diamond.bmp']",n,0.6,go,,,,,
example2,example,1,2025-00-00_00h00.00.000,PGNGS_shapes_600ms_v11r1,2021.1.4,59.88382538,L_parallelogram.bmp,,,137.0,1,"['L_circle.bmp', 'L_diamond.bmp']",n,0.6,go,,,,,
example2,example,1,2025-00-00_00h00.00.000,PGNGS_shapes_600ms_v11r1,2021.1.4,59.88382538,L_diamond.bmp,n,0.4911,138.0,1,"['L_circle.bmp', 'L_diamond.bmp']",n,0.6,go,,,target,hit,0.4911
example2,example,1,2025-00-00_00h00.00.000,PGNGS_shapes_600ms_v11r1,2021.1.4,59.88382538,L_square.bmp,,,139.0,1,"['L_circle.bmp', 'L_diamond.bmp']",n,0.6,go,,,,,
example2,example,1,2025-00-00_00h00.00.000,PGNGS_shapes_600ms_v11r1,2021.1.4,59.88382538,L_pentagon.bmp,,,140.0,1,"['L_circle.bmp', 'L_diamond.bmp']",n,0.6,go,,,,,
example2,example,1,2025-00-00_00h00.00.000,PGNGS_shapes_600ms_v11r1,2021.1.4,59.88382538,L_HalfOval.bmp,,,141.0,1,"['L_circle.bmp', 'L_diamond.bmp']",n,0.6,go,,,,,
example2,example,1,2025-00-00_00h00.00.000,PGNGS_shapes_600ms_v11r1,2021.1.4,59.88382538,L_circle.bmp,,,142.0,1,"['L_circle.bmp', 'L_diamond.bmp']",n,0.6,go,,,target,om,
example2,example,1,2025-00-00_00h00.00.000,PGNGS_shapes_600ms_v11r1,2021.1.4,59.88382538,L_square.bmp,,,143.0,1,"['L_circle.bmp', 'L_diamond.bmp']",n,0.6,go,,,,,
example2,example,1,2025-00-00_00h00.00.000,PGNGS_shapes_600ms_v11r1,2021.1.4,59.88382538,L_HalfOval.bmp,,,144.0,1,"['L_circle.bmp', 'L_diamond.bmp']",n,0.6,go,,,,,
example2,example,1,2025-00-00_00h00.00.000,PGNGS_shapes_600ms_v11r1,2021.1.4,59.88382538,L_circle.bmp,,,145.0,1,"['L_circle.bmp', 'L_diamond.bmp']",n,0.6,go,,,target,om,
example2,example,1,2025-00-00_00h00.00.000,PGNGS_shapes_600ms_v11r1,2021.1.4,59.88382538,L_parallelogram.bmp,,,146.0,1,"['L_circle.bmp', 'L_diamond.bmp']",n,0.6,go,,,,,
example2,example,1,2025-00-00_00h00.00.000,PGNGS_shapes_600ms_v11r1,2021.1.4,59.88382538,L_pentagon.bmp,,,147.0,1,"['L_circle.bmp', 'L_diamond.bmp']",n,0.6,go,,,,,
example2,example,1,2025-00-00_00h00.00.000,PGNGS_shapes_600ms_v11r1,2021.1.4,59.88382538,L_square.bmp,,,148.0,1,"['L_circle.bmp', 'L_diamond.bmp']",n,0.6,go,,,,,
example2,example,1,2025-00-00_00h00.00.000,PGNGS_shapes_600ms_v11r1,2021.1.4,59.88382538,L_HalfOval.bmp,,,149.0,1,"['L_circle.bmp', 'L_diamond.bmp']",n,0.6,go,,,,,
example2,example,1,2025-00-00_00h00.00.000,PGNGS_shapes_600ms_v11r1,2021.1.4,59.88382538,L_parallelogram.bmp,,,150.0,1,"['L_circle.bmp', 'L_diamond.bmp']",n,0.6,go,,,,,
example2,example,1,2025-00-00_00h00.00.000,PGNGS_shapes_600ms_v11r1,2021.1.4,59.88382538,L_square.bmp,,,151.0,1,"['L_circle.bmp', 'L_diamond.bmp']",n,0.6,go,,,,,
example2,example,1,2025-00-00_00h00.00.000,PGNGS_shapes_600ms_v11r1,2021.1.4,59.88382538,L_pentagon.bmp,,,152.0,1,"['L_circle.bmp', 'L_diamond.bmp']",n,0.6,go,,,,,
example2,example,1,2025-00-00_00h00.00.000,PGNGS_shapes_600ms_v11r1,2021.1.4,59.88382538,L_parallelogram.bmp,,,153.0,1,"['L_circle.bmp', 'L_diamond.bmp']",n,0.6,go,,,,,
example2,example,1,2025-00-00_00h00.00.000,PGNGS_shapes_600ms_v11r1,2021.1.4,59.88382538,L_circle.bmp,n,0.4828,154.0,1,"['L_circle.bmp', 'L_diamond.bmp']",n,0.6,go,,,target,hit,0.4828
example2,example,1,2025-00-00_00h00.00.000,PGNGS_shapes_600ms_v11r1,2021.1.4,59.88382538,L_HalfOval.bmp,,,155.0,1,"['L_circle.bmp', 'L_diamond.bmp']",n,0.6,go,,,,,
example2,example,1,2025-00-00_00h00.00.000,PGNGS_shapes_600ms_v11r1,2021.1.4,59.88382538,L_pentagon.bmp,,,156.0,1,"['L_circle.bmp', 'L_diamond.bmp']",n,0.6,go,,,,,
example2,example,1,2025-00-00_00h00.00.000,PGNGS_shapes_600ms_v11r1,2021.1.4,59.88382538,L_square.bmp,,,157.0,1,"['L_circle.bmp', 'L_diamond.bmp']",n,0.6,go,,,,,
example2,example,1,2025-00-00_00h00.00.000,PGNGS_shapes_600ms_v11r1,2021.1.4,59.88382538,L_HalfOval.bmp,,,158.0,1,"['L_circle.bmp', 'L_diamond.bmp']",n,0.6,go,,,,,
example2,example,1,2025-00-00_00h00.00.000,PGNGS_shapes_600ms_v11r1,2021.1.4,59.88382538,L_parallelogram.bmp,,,159.0,1,"['L_circle.bmp', 'L_diamond.bmp']",n,0.6,go,,,,,
example2,example,1,2025-00-00_00h00.00.000,PGNGS_shapes_600ms_v11r1,2021.1.4,59.88382538,L_pentagon.bmp,,,160.0,1,"['L_circle.bmp', 'L_diamond.bmp']",n,0.6,go,,,,,
example2,example,1,2025-00-00_00h00.00.000,PGNGS_shapes_600ms_v11r1,2021.1.4,59.88382538,L_square.bmp,,,161.0,1,"['L_circle.bmp', 'L_diamond.bmp']",n,0.6,go,,,,,
example2,example,1,2025-00-00_00h00.00.000,PGNGS_shapes_600ms_v11r1,2021.1.4,59.88382538,L_HalfOval.bmp,,,162.0,1,"['L_circle.bmp', 'L_diamond.bmp']",n,0.6,go,,,,,
example2,example,1,2025-00-00_00h00.00.000,PGNGS_shapes_600ms_v11r1,2021.1.4,59.88382538,L_pentagon.bmp,,,163.0,1,"['L_circle.bmp', 'L_diamond.bmp']",n,0.6,go,,,,,
example2,example,1,2025-00-00_00h00.00.000,PGNGS_shapes_600ms_v11r1,2021.1.4,59.88382538,L_parallelogram.bmp,,,164.0,1,"['L_circle.bmp', 'L_diamond.bmp']",n,0.6,go,,,,,
example2,example,1,2025-00-00_00h00.00.000,PGNGS_shapes_600ms_v11r1,2021.1.4,59.88382538,L_HalfOval.bmp,,,165.0,1,"['L_circle.bmp', 'L_diamond.bmp']",n,0.6,go,,,,,
example2,example,1,2025-00-00_00h00.00.000,PGNGS_shapes_600ms_v11r1,2021.1.4,59.88382538,L_pentagon.bmp,,,166.0,1,"['L_circle.bmp', 'L_diamond.bmp']",n,0.6,go,,,,,
example2,example,1,2025-00-00_00h00.00.000,PGNGS_shapes_600ms_v11r1,2021.1.4,59.88382538,L_square.bmp,,,167.0,1,"['L_circle.bmp', 'L_diamond.bmp']",n,0.6,go,,,,,
example2,example,1,2025-00-00_00h00.00.000,PGNGS_shapes_600ms_v11r1,2021.1.4,59.88382538,L_pentagon.bmp,,,0.0,2,"['L_circle.bmp', 'L_diamond.bmp']",n,0.6,gng,,,,,
example2,example,1,2025-00-00_00h00.00.000,PGNGS_shapes_600ms_v11r1,2021.1.4,59.88382538,L_parallelogram.bmp,,,1.0,2,"['L_circle.bmp', 'L_diamond.bmp']",n,0.6,gng,,,,,
example2,example,1,2025-00-00_00h00.00.000,PGNGS_shapes_600ms_v11r1,2021.1.4,59.88382538,L_HalfOval.bmp,,,2.0,2,"['L_circle.bmp', 'L_diamond.bmp']",n,0.6,gng,,,,,
example2,example,1,2025-00-00_00h00.00.000,PGNGS_shapes_600ms_v11r1,2021.1.4,59.88382538,L_diamond.bmp,n,0.5561,3.0,2,"['L_circle.bmp', 'L_diamond.bmp']",n,0.6,gng,,,target,hit,0.5561
example2,example,1,2025-00-00_00h00.00.000,PGNGS_shapes_600ms_v11r1,2021.1.4,59.88382538,L_parallelogram.bmp,,,4.0,2,"['L_circle.bmp', 'L_diamond.bmp']",n,0.6,gng,,,,,
example2,example,1,2025-00-00_00h00.00.000,PGNGS_shapes_600ms_v11r1,2021.1.4,59.88382538,L_pentagon.bmp,,,5.0,2,"['L_circle.bmp', 'L_diamond.bmp']",n,0.6,gng,,,,,
example2,example,1,2025-00-00_00h00.00.000,PGNGS_shapes_600ms_v11r1,2021.1.4,59.88382538,L_square.bmp,,,6.0,2,"['L_circle.bmp', 'L_diamond.bmp']",n,0.6,gng,,,,,
example2,example,1,2025-00-00_00h00.00.000,PGNGS_shapes_600ms_v11r1,2021.1.4,59.88382538,L_HalfOval.bmp,,,7.0,2,"['L_circle.bmp', 'L_diamond.bmp']",n,0.6,gng,,,,,
example2,example,1,2025-00-00_00h00.00.000,PGNGS_shapes_600ms_v11r1,2021.1.4,59.88382538,L_parallelogram.bmp,,,8.0,2,"['L_circle.bmp', 'L_diamond.bmp']",n,0.6,gng,,,,,
example2,example,1,2025-00-00_00h00.00.000,PGNGS_shapes_600ms_v11r1,2021.1.4,59.88382538,L_circle.bmp,,,9.0,2,"['L_circle.bmp', 'L_diamond.bmp']",n,0.6,gng,,,target,om,
example2,example,1,2025-00-00_00h00.00.000,PGNGS_shapes_600ms_v11r1,2021.1.4,59.88382538,L_pentagon.bmp,,,10.0,2,"['L_circle.bmp', 'L_diamond.bmp']",n,0.6,gng,,,,,
example2,example,1,2025-00-00_00h00.00.000,PGNGS_shapes_600ms_v11r1,2021.1.4,59.88382538,L_square.bmp,,,11.0,2,"['L_circle.bmp', 'L_diamond.bmp']",n,0.6,gng,,,,,
example2,example,1,2025-00-00_00h00.00.000,PGNGS_shapes_600ms_v11r1,2021.1.4,59.88382538,L_HalfOval.bmp,,,12.0,2,"['L_circle.bmp', 'L_diamond.bmp']",n,0.6,gng,,,,,
example2,example,1,2025-00-00_00h00.00.000,PGNGS_shapes_600ms_v11r1,2021.1.4,59.88382538,L_parallelogram.bmp,,,13.0,2,"['L_circle.bmp', 'L_diamond.bmp']",n,0.6,gng,,,,,
example2,example,1,2025-00-00_00h00.00.000,PGNGS_shapes_600ms_v11r1,2021.1.4,59.88382538,L_pentagon.bmp,,,14.0,2,"['L_circle.bmp', 'L_diamond.bmp']",n,0.6,gng,,,,,
example2,example,1,2025-00-00_00h00.00.000,PGNGS_shapes_600ms_v11r1,2021.1.4,59.88382538,L_square.bmp,,,15.0,2,"['L_circle.bmp', 'L_diamond.bmp']",n,0.6,gng,,,,,
example2,example,1,2025-00-00_00h00.00.000,PGNGS_shapes_600ms_v11r1,2021.1.4,59.88382538,L_circle.bmp,n,0.4225,16.0,2,"['L_circle.bmp', 'L_diamond.bmp']",n,0.6,gng,,,lure,mo,0.4225
example2,example,1,2025-00-00_00h00.00.000,PGNGS_shapes_600ms_v11r1,2021.1.4,59.88382538,L_pentagon.bmp,,,17.0,2,"['L_circle.bmp', 'L_diamond.bmp']",n,0.6,gng,,,,,
example2,example,1,2025-00-00_00h00.00.000,PGNGS_shapes_600ms_v11r1,2021.1.4,59.88382538,L_parallelogram.bmp,,,18.0,2,"['L_circle.bmp', 'L_diamond.bmp']",n,0.6,gng,,,,,
example2,example,1,2025-00-00_00h00.00.000,PGNGS_shapes_600ms_v11r1,2021.1.4,59.88382538,L_square.bmp,,,19.0,2,"['L_circle.bmp', 'L_diamond.bmp']",n,0.6,gng,,,,,
example2,example,1,2025-00-00_00h00.00.000,PGNGS_shapes_600ms_v11r1,2021.1.4,59.88382538,L_parallelogram.bmp,,,20.0,2,"['L_circle.bmp', 'L_diamond.bmp']",n,0.6,gng,,,,,
example2,example,1,2025-00-00_00h00.00.000,PGNGS_shapes_600ms_v11r1,2021.1.4,59.88382538,L_diamond.bmp,n,0.4332,21.0,2,"['L_circle.bmp', 'L_diamond.bmp']",n,0.6,gng,,,target,hit,0.4332
example2,example,1,2025-00-00_00h00.00.000,PGNGS_shapes_600ms_v11r1,2021.1.4,59.88382538,L_square.bmp,,,22.0,2,"['L_circle.bmp', 'L_diamond.bmp']",n,0.6,gng,,,,,
example2,example,1,2025-00-00_00h00.00.000,PGNGS_shapes_600ms_v11r1,2021.1.4,59.88382538,L_pentagon.bmp,,,23.0,2,"['L_circle.bmp', 'L_diamond.bmp']",n,0.6,gng,,,,,
example2,example,1,2025-00-00_00h00.00.000,PGNGS_shapes_600ms_v11r1,2021.1.4,59.88382538,L_square.bmp,,,24.0,2,"['L_circle.bmp', 'L_diamond.bmp']",n,0.6,gng,,,,,
example2,example,1,2025-00-00_00h00.00.000,PGNGS_shapes_600ms_v11r1,2021.1.4,59.88382538,L_circle.bmp,n,0.3884,25.0,2,"['L_circle.bmp', 'L_diamond.bmp']",n,0.6,gng,,,target,hit,0.3884
example2,example,1,2025-00-00_00h00.00.000,PGNGS_shapes_600ms_v11r1,2021.1.4,59.88382538,L_parallelogram.bmp,,,26.0,2,"['L_circle.bmp', 'L_diamond.bmp']",n,0.6,gng,,,,,
example2,example,1,2025-00-00_00h00.00.000,PGNGS_shapes_600ms_v11r1,2021.1.4,59.88382538,L_HalfOval.bmp,,,27.0,2,"['L_circle.bmp', 'L_diamond.bmp']",n,0.6,gng,,,,,
example2,example,1,2025-00-00_00h00.00.000,PGNGS_shapes_600ms_v11r1,2021.1.4,59.88382538,L_diamond.bmp,,,28.0,2,"['L_circle.bmp', 'L_diamond.bmp']",n,0.6,gng,,,target,om,
example2,example,1,2025-00-00_00h00.00.000,PGNGS_shapes_600ms_v11r1,2021.1.4,59.88382538,L_pentagon.bmp,,,29.0,2,"['L_circle.bmp', 'L_diamond.bmp']",n,0.6,gng,,,,,
example2,example,1,2025-00-00_00h00.00.000,PGNGS_shapes_600ms_v11r1,2021.1.4,59.88382538,L_parallelogram.bmp,,,30.0,2,"['L_circle.bmp', 'L_diamond.bmp']",n,0.6,gng,,,,,
example2,example,1,2025-00-00_00h00.00.000,PGNGS_shapes_600ms_v11r1,2021.1.4,59.88382538,L_HalfOval.bmp,,,31.0,2,"['L_circle.bmp', 'L_diamond.bmp']",n,0.6,gng,,,,,
example2,example,1,2025-00-00_00h00.00.000,PGNGS_shapes_600ms_v11r1,2021.1.4,59.88382538,L_square.bmp,n,0.3001,32.0,2,"['L_circle.bmp', 'L_diamond.bmp']",n,0.6,gng,,,,randcom,0.3001
example2,example,1,2025-00-00_00h00.00.000,PGNGS_shapes_600ms_v11r1,2021.1.4,59.88382538,L_pentagon.bmp,,,33.0,2,"['L_circle.bmp', 'L_diamond.bmp']",n,0.6,gng,,,,,
example2,example,1,2025-00-00_00h00.00.000,PGNGS_shapes_600ms_v11r1,2021.1.4,59.88382538,L_HalfOval.bmp,,,34.0,2,"['L_circle.bmp', 'L_diamond.bmp']",n,0.6,gng,,,,,
example2,example,1,2025-00-00_00h00.00.000,PGNGS_shapes_600ms_v11r1,2021.1.4,59.88382538,L_parallelogram.bmp,,,35.0,2,"['L_circle.bmp', 'L_diamond.bmp']",n,0.6,gng,,,,,
example2,example,1,2025-00-00_00h00.00.000,PGNGS_shapes_600ms_v11r1,2021.1.4,59.88382538,L_square.bmp,,,36.0,2,"['L_circle.bmp', 'L_diamond.bmp']",n,0.6,gng,,,,,
example2,example,1,2025-00-00_00h00.00.000,PGNGS_shapes_600ms_v11r1,2021.1.4,59.88382538,L_pentagon.bmp,,,37.0,2,"['L_circle.bmp', 'L_diamond.bmp']",n,0.6,gng,,,,,
example2,example,1,2025-00-00_00h00.00.000,PGNGS_shapes_600ms_v11r1,2021.1.4,59.88382538,L_diamond.bmp,n,0.5155,38.0,2,"['L_circle.bmp', 'L_diamond.bmp']",n,0.6,gng,,,lure,mo,0.5155
example2,example,1,2025-00-00_00h00.00.000,PGNGS_shapes_600ms_v11r1,2021.1.4,59.88382538,L_pentagon.bmp,,,39.0,2,"['L_circle.bmp', 'L_diamond.bmp']",n,0.6,gng,,,,,
example2,example,1,2025-00-00_00h00.00.000,PGNGS_shapes_600ms_v11r1,2021.1.4,59.88382538,L_HalfOval.bmp,,,40.0,2,"['L_circle.bmp', 'L_diamond.bmp']",n,0.6,gng,,,,,
example2,example,1,2025-00-00_00h00.00.000,PGNGS_shapes_600ms_v11r1,2021.1.4,59.88382538,L_parallelogram.bmp,,,41.0,2,"['L_circle.bmp', 'L_diamond.bmp']",n,0.6,gng,,,,,
example2,example,1,2025-00-00_00h00.00.000,PGNGS_shapes_600ms_v11r1,2021.1.4,59.88382538,L_pentagon.bmp,,,42.0,2,"['L_circle.bmp', 'L_diamond.bmp']",n,0.6,gng,,,,,
example2,example,1,2025-00-00_00h00.00.000,PGNGS_shapes_600ms_v11r1,2021.1.4,59.88382538,L_square.bmp,,,43.0,2,"['L_circle.bmp', 'L_diamond.bmp']",n,0.6,gng,,,,,
example2,example,1,2025-00-00_00h00.00.000,PGNGS_shapes_600ms_v11r1,2021.1.4,59.88382538,L_HalfOval.bmp,,,44.0,2,"['L_circle.bmp', 'L_diamond.bmp']",n,0.6,gng,,,,,
example2,example,1,2025-00-00_00h00.00.000,PGNGS_shapes_600ms_v11r1,2021.1.4,59.88382538,L_parallelogram.bmp,,,45.0,2,"['L_circle.bmp', 'L_diamond.bmp']",n,0.6,gng,,,,,
example2,example,1,2025-00-00_00h00.00.000,PGNGS_shapes_600ms_v11r1,2021.1.4,59.88382538,L_pentagon.bmp,,,46.0,2,"['L_circle.bmp', 'L_diamond.bmp']",n,0.6,gng,,,,,
example2,example,1,2025-00-00_00h00.00.000,PGNGS_shapes_600ms_v11r1,2021.1.4,59.88382538,L_HalfOval.bmp,,,47.0,2,"['L_circle.bmp', 'L_diamond.bmp']",n,0.6,gng,,,,,
example2,example,1,2025-00-00_00h00.00.000,PGNGS_shapes_600ms_v11r1,2021.1.4,59.88382538,L_parallelogram.bmp,,,48.0,2,"['L_circle.bmp', 'L_diamond.bmp']",n,0.6,gng,,,,,
example2,example,1,2025-00-00_00h00.00.000,PGNGS_shapes_600ms_v11r1,2021.1.4,59.88382538,L_pentagon.bmp,,,49.0,2,"['L_circle.bmp', 'L_diamond.bmp']",n,0.6,gng,,,,,
example2,example,1,2025-00-00_00h00.00.000,PGNGS_shapes_600ms_v11r1,2021.1.4,59.88382538,L_square.bmp,,,50.0,2,"['L_circle.bmp', 'L_diamond.bmp']",n,0.6,gng,,,,,
example2,example,1,2025-00-00_00h00.00.000,PGNGS_shapes_600ms_v11r1,2021.1.4,59.88382538,L_parallelogram.bmp,,,51.0,2,"['L_circle.bmp', 'L_diamond.bmp']",n,0.6,gng,,,,,
example2,example,1,2025-00-00_00h00.00.000,PGNGS_shapes_600ms_v11r1,2021.1.4,59.88382538,L_HalfOval.bmp,,,52.0,2,"['L_circle.bmp', 'L_diamond.bmp']",n,0.6,gng,,,,,
example2,example,1,2025-00-00_00h00.00.000,PGNGS_shapes_600ms_v11r1,2021.1.4,59.88382538,L_square.bmp,,,53.0,2,"['L_circle.bmp', 'L_diamond.bmp']",n,0.6,gng,,,,,
example2,example,1,2025-00-00_00h00.00.000,PGNGS_shapes_600ms_v11r1,2021.1.4,59.88382538,L_circle.bmp,,,54.0,2,"['L_circle.bmp', 'L_diamond.bmp']",n,0.6,gng,,,target,hit,0.6008
example2,example,1,2025-00-00_00h00.00.000,PGNGS_shapes_600ms_v11r1,2021.1.4,59.88382538,L_parallelogram.bmp,n,0.0008,55.0,2,"['L_circle.bmp', 'L_diamond.bmp']",n,0.6,gng,,,,,
example2,example,1,2025-00-00_00h00.00.000,PGNGS_shapes_600ms_v11r1,2021.1.4,59.88382538,L_square.bmp,,,56.0,2,"['L_circle.bmp', 'L_diamond.bmp']",n,0.6,gng,,,,,
example2,example,1,2025-00-00_00h00.00.000,PGNGS_shapes_600ms_v11r1,2021.1.4,59.88382538,L_HalfOval.bmp,,,57.0,2,"['L_circle.bmp', 'L_diamond.bmp']",n,0.6,gng,,,,,
example2,example,1,2025-00-00_00h00.00.000,PGNGS_shapes_600ms_v11r1,2021.1.4,59.88382538,L_diamond.bmp,,,58.0,2,"['L_circle.bmp', 'L_diamond.bmp']",n,0.6,gng,,,target,hit,0.6195999999999999
example2,example,1,2025-00-00_00h00.00.000,PGNGS_shapes_600ms_v11r1,2021.1.4,59.88382538,L_square.bmp,n,0.0196,59.0,2,"['L_circle.bmp', 'L_diamond.bmp']",n,0.6,gng,,,,,
example2,example,1,2025-00-00_00h00.00.000,PGNGS_shapes_600ms_v11r1,2021.1.4,59.88382538,L_parallelogram.bmp,,,60.0,2,"['L_circle.bmp', 'L_diamond.bmp']",n,0.6,gng,,,,,
example2,example,1,2025-00-00_00h00.00.000,PGNGS_shapes_600ms_v11r1,2021.1.4,59.88382538,L_HalfOval.bmp,,,61.0,2,"['L_circle.bmp', 'L_diamond.bmp']",n,0.6,gng,,,,,
example2,example,1,2025-00-00_00h00.00.000,PGNGS_shapes_600ms_v11r1,2021.1.4,59.88382538,L_pentagon.bmp,,,62.0,2,"['L_circle.bmp', 'L_diamond.bmp']",n,0.6,gng,,,,,
example2,example,1,2025-00-00_00h00.00.000,PGNGS_shapes_600ms_v11r1,2021.1.4,59.88382538,L_parallelogram.bmp,,,63.0,2,"['L_circle.bmp', 'L_diamond.bmp']",n,0.6,gng,,,,,
example2,example,1,2025-00-00_00h00.00.000,PGNGS_shapes_600ms_v11r1,2021.1.4,59.88382538,L_HalfOval.bmp,,,64.0,2,"['L_circle.bmp', 'L_diamond.bmp']",n,0.6,gng,,,,,
example2,example,1,2025-00-00_00h00.00.000,PGNGS_shapes_600ms_v11r1,2021.1.4,59.88382538,L_square.bmp,,,65.0,2,"['L_circle.bmp', 'L_diamond.bmp']",n,0.6,gng,,,,,
example2,example,1,2025-00-00_00h00.00.000,PGNGS_shapes_600ms_v11r1,2021.1.4,59.88382538,L_pentagon.bmp,,,66.0,2,"['L_circle.bmp', 'L_diamond.bmp']",n,0.6,gng,,,,,
example2,example,1,2025-00-00_00h00.00.000,PGNGS_shapes_600ms_v11r1,2021.1.4,59.88382538,L_parallelogram.bmp,,,67.0,2,"['L_circle.bmp', 'L_diamond.bmp']",n,0.6,gng,,,,,
example2,example,1,2025-00-00_00h00.00.000,PGNGS_shapes_600ms_v11r1,2021.1.4,59.88382538,L_square.bmp,,,68.0,2,"['L_circle.bmp', 'L_diamond.bmp']",n,0.6,gng,,,,,
example2,example,1,2025-00-00_00h00.00.000,PGNGS_shapes_600ms_v11r1,2021.1.4,59.88382538,L_pentagon.bmp,,,69.0,2,"['L_circle.bmp', 'L_diamond.bmp']",n,0.6,gng,,,,,
example2,example,1,2025-00-00_00h00.00.000,PGNGS_shapes_600ms_v11r1,2021.1.4,59.88382538,L_diamond.bmp,,,70.0,2,"['L_circle.bmp', 'L_diamond.bmp']",n,0.6,gng,,,lure,com,0.8819999999999999
example2,example,1,2025-00-00_00h00.00.000,PGNGS_shapes_600ms_v11r1,2021.1.4,59.88382538,L_pentagon.bmp,n,0.282,71.0,2,"['L_circle.bmp', 'L_diamond.bmp']",n,0.6,gng,,,,,
example2,example,1,2025-00-00_00h00.00.000,PGNGS_shapes_600ms_v11r1,2021.1.4,59.88382538,L_pentagon.bmp,,,72.0,2,"['L_circle.bmp', 'L_diamond.bmp']",n,0.6,gng,,,,,
example2,example,1,2025-00-00_00h00.00.000,PGNGS_shapes_600ms_v11r1,2021.1.4,59.88382538,L_HalfOval.bmp,,,73.0,2,"['L_circle.bmp', 'L_diamond.bmp']",n,0.6,gng,,,,,
example2,example,1,2025-00-00_00h00.00.000,PGNGS_shapes_600ms_v11r1,2021.1.4,59.88382538,L_square.bmp,,,74.0,2,"['L_circle.bmp', 'L_diamond.bmp']",n,0.6,gng,,,,,
example2,example,1,2025-00-00_00h00.00.000,PGNGS_shapes_600ms_v11r1,2021.1.4,59.88382538,L_parallelogram.bmp,,,75.0,2,"['L_circle.bmp', 'L_diamond.bmp']",n,0.6,gng,,,,,
example2,example,1,2025-00-00_00h00.00.000,PGNGS_shapes_600ms_v11r1,2021.1.4,59.88382538,L_pentagon.bmp,,,76.0,2,"['L_circle.bmp', 'L_diamond.bmp']",n,0.6,gng,,,,,
example2,example,1,2025-00-00_00h00.00.000,PGNGS_shapes_600ms_v11r1,2021.1.4,59.88382538,L_HalfOval.bmp,,,77.0,2,"['L_circle.bmp', 'L_diamond.bmp']",n,0.6,gng,,,,,
example2,example,1,2025-00-00_00h00.00.000,PGNGS_shapes_600ms_v11r1,2021.1.4,59.88382538,L_parallelogram.bmp,,,78.0,2,"['L_circle.bmp', 'L_diamond.bmp']",n,0.6,gng,,,,,
example2,example,1,2025-00-00_00h00.00.000,PGNGS_shapes_600ms_v11r1,2021.1.4,59.88382538,L_square.bmp,,,79.0,2,"['L_circle.bmp', 'L_diamond.bmp']",n,0.6,gng,,,,,
example2,example,1,2025-00-00_00h00.00.000,PGNGS_shapes_600ms_v11r1,2021.1.4,59.88382538,L_pentagon.bmp,,,80.0,2,"['L_circle.bmp', 'L_diamond.bmp']",n,0.6,gng,,,,,
example2,example,1,2025-00-00_00h00.00.000,PGNGS_shapes_600ms_v11r1,2021.1.4,59.88382538,L_circle.bmp,n,0.528,81.0,2,"['L_circle.bmp', 'L_diamond.bmp']",n,0.6,gng,,,target,hit,0.528
example2,example,1,2025-00-00_00h00.00.000,PGNGS_shapes_600ms_v11r1,2021.1.4,59.88382538,L_HalfOval.bmp,,,82.0,2,"['L_circle.bmp', 'L_diamond.bmp']",n,0.6,gng,,,,,
example2,example,1,2025-00-00_00h00.00.000,PGNGS_shapes_600ms_v11r1,2021.1.4,59.88382538,L_square.bmp,,,83.0,2,"['L_circle.bmp', 'L_diamond.bmp']",n,0.6,gng,,,,,
example2,example,1,2025-00-00_00h00.00.000,PGNGS_shapes_600ms_v11r1,2021.1.4,59.88382538,L_diamond.bmp,n,0.4861,84.0,2,"['L_circle.bmp', 'L_diamond.bmp']",n,0.6,gng,,,target,hit,0.4861
example2,example,1,2025-00-00_00h00.00.000,PGNGS_shapes_600ms_v11r1,2021.1.4,59.88382538,L_square.bmp,,,85.0,2,"['L_circle.bmp', 'L_diamond.bmp']",n,0.6,gng,,,,,
example2,example,1,2025-00-00_00h00.00.000,PGNGS_shapes_600ms_v11r1,2021.1.4,59.88382538,L_HalfOval.bmp,,,86.0,2,"['L_circle.bmp', 'L_diamond.bmp']",n,0.6,gng,,,,,
example2,example,1,2025-00-00_00h00.00.000,PGNGS_shapes_600ms_v11r1,2021.1.4,59.88382538,L_pentagon.bmp,,,87.0,2,"['L_circle.bmp', 'L_diamond.bmp']",n,0.6,gng,,,,,
example2,example,1,2025-00-00_00h00.00.000,PGNGS_shapes_600ms_v11r1,2021.1.4,59.88382538,L_circle.bmp,n,0.5068,88.0,2,"['L_circle.bmp', 'L_diamond.bmp']",n,0.6,gng,,,target,hit,0.5068
example2,example,1,2025-00-00_00h00.00.000,PGNGS_shapes_600ms_v11r1,2021.1.4,59.88382538,L_square.bmp,,,89.0,2,"['L_circle.bmp', 'L_diamond.bmp']",n,0.6,gng,,,,,
example2,example,1,2025-00-00_00h00.00.000,PGNGS_shapes_600ms_v11r1,2021.1.4,59.88382538,L_pentagon.bmp,,,90.0,2,"['L_circle.bmp', 'L_diamond.bmp']",n,0.6,gng,,,,,
example2,example,1,2025-00-00_00h00.00.000,PGNGS_shapes_600ms_v11r1,2021.1.4,59.88382538,L_HalfOval.bmp,,,91.0,2,"['L_circle.bmp', 'L_diamond.bmp']",n,0.6,gng,,,,,
example2,example,1,2025-00-00_00h00.00.000,PGNGS_shapes_600ms_v11r1,2021.1.4,59.88382538,L_circle.bmp,,,92.0,2,"['L_circle.bmp', 'L_diamond.bmp']",n,0.6,gng,,,lure,rej,
example2,example,1,2025-00-00_00h00.00.000,PGNGS_shapes_600ms_v11r1,2021.1.4,59.88382538,L_pentagon.bmp,,,93.0,2,"['L_circle.bmp', 'L_diamond.bmp']",n,0.6,gng,,,,,
example2,example,1,2025-00-00_00h00.00.000,PGNGS_shapes_600ms_v11r1,2021.1.4,59.88382538,L_square.bmp,,,94.0,2,"['L_circle.bmp', 'L_diamond.bmp']",n,0.6,gng,,,,,
example2,example,1,2025-00-00_00h00.00.000,PGNGS_shapes_600ms_v11r1,2021.1.4,59.88382538,L_HalfOval.bmp,,,95.0,2,"['L_circle.bmp', 'L_diamond.bmp']",n,0.6,gng,,,,,
example2,example,1,2025-00-00_00h00.00.000,PGNGS_shapes_600ms_v11r1,2021.1.4,59.88382538,L_pentagon.bmp,,,96.0,2,"['L_circle.bmp', 'L_diamond.bmp']",n,0.6,gng,,,,,
example2,example,1,2025-00-00_00h00.00.000,PGNGS_shapes_600ms_v11r1,2021.1.4,59.88382538,L_diamond.bmp,n,0.447,97.0,2,"['L_circle.bmp', 'L_diamond.bmp']",n,0.6,gng,,,target,hit,0.447
example2,example,1,2025-00-00_00h00.00.000,PGNGS_shapes_600ms_v11r1,2021.1.4,59.88382538,L_pentagon.bmp,,,98.0,2,"['L_circle.bmp', 'L_diamond.bmp']",n,0.6,gng,,,,,
example2,example,1,2025-00-00_00h00.00.000,PGNGS_shapes_600ms_v11r1,2021.1.4,59.88382538,L_parallelogram.bmp,,,99.0,2,"['L_circle.bmp', 'L_diamond.bmp']",n,0.6,gng,,,,,
example2,example,1,2025-00-00_00h00.00.000,PGNGS_shapes_600ms_v11r1,2021.1.4,59.88382538,L_circle.bmp,,,100.0,2,"['L_circle.bmp', 'L_diamond.bmp']",n,0.6,gng,,,target,om,
example2,example,1,2025-00-00_00h00.00.000,PGNGS_shapes_600ms_v11r1,2021.1.4,59.88382538,L_pentagon.bmp,,,101.0,2,"['L_circle.bmp', 'L_diamond.bmp']",n,0.6,gng,,,,,
example2,example,1,2025-00-00_00h00.00.000,PGNGS_shapes_600ms_v11r1,2021.1.4,59.88382538,L_HalfOval.bmp,,,102.0,2,"['L_circle.bmp', 'L_diamond.bmp']",n,0.6,gng,,,,,
example2,example,1,2025-00-00_00h00.00.000,PGNGS_shapes_600ms_v11r1,2021.1.4,59.88382538,L_square.bmp,,,103.0,2,"['L_circle.bmp', 'L_diamond.bmp']",n,0.6,gng,,,,,
example2,example,1,2025-00-00_00h00.00.000,PGNGS_shapes_600ms_v11r1,2021.1.4,59.88382538,L_diamond.bmp,n,0.5034,104.0,2,"['L_circle.bmp', 'L_diamond.bmp']",n,0.6,gng,,,target,hit,0.5034
example2,example,1,2025-00-00_00h00.00.000,PGNGS_shapes_600ms_v11r1,2021.1.4,59.88382538,L_parallelogram.bmp,,,105.0,2,"['L_circle.bmp', 'L_diamond.bmp']",n,0.6,gng,,,,,
example2,example,1,2025-00-00_00h00.00.000,PGNGS_shapes_600ms_v11r1,2021.1.4,59.88382538,L_pentagon.bmp,,,106.0,2,"['L_circle.bmp', 'L_diamond.bmp']",n,0.6,gng,,,,,
example2,example,1,2025-00-00_00h00.00.000,PGNGS_shapes_600ms_v11r1,2021.1.4,59.88382538,L_HalfOval.bmp,,,107.0,2,"['L_circle.bmp', 'L_diamond.bmp']",n,0.6,gng,,,,,
example2,example,1,2025-00-00_00h00.00.000,PGNGS_shapes_600ms_v11r1,2021.1.4,59.88382538,L_circle.bmp,n,0.4227,108.0,2,"['L_circle.bmp', 'L_diamond.bmp']",n,0.6,gng,,,target,hit,0.4227
example2,example,1,2025-00-00_00h00.00.000,PGNGS_shapes_600ms_v11r1,2021.1.4,59.88382538,L_pentagon.bmp,,,109.0,2,"['L_circle.bmp', 'L_diamond.bmp']",n,0.6,gng,,,,,
example2,example,1,2025-00-00_00h00.00.000,PGNGS_shapes_600ms_v11r1,2021.1.4,59.88382538,L_parallelogram.bmp,,,110.0,2,"['L_circle.bmp', 'L_diamond.bmp']",n,0.6,gng,,,,,
example2,example,1,2025-00-00_00h00.00.000,PGNGS_shapes_600ms_v11r1,2021.1.4,59.88382538,L_HalfOval.bmp,,,111.0,2,"['L_circle.bmp', 'L_diamond.bmp']",n,0.6,gng,,,,,
example2,example,1,2025-00-00_00h00.00.000,PGNGS_shapes_600ms_v11r1,2021.1.4,59.88382538,L_diamond.bmp,n,0.5219,112.0,2,"['L_circle.bmp', 'L_diamond.bmp']",n,0.6,gng,,,target,hit,0.5219
example2,example,1,2025-00-00_00h00.00.000,PGNGS_shapes_600ms_v11r1,2021.1.4,59.88382538,L_square.bmp,,,113.0,2,"['L_circle.bmp', 'L_diamond.bmp']",n,0.6,gng,,,,,
example2,example,1,2025-00-00_00h00.00.000,PGNGS_shapes_600ms_v11r1,2021.1.4,59.88382538,L_parallelogram.bmp,,,114.0,2,"['L_circle.bmp', 'L_diamond.bmp']",n,0.6,gng,,,,,
example2,example,1,2025-00-00_00h00.00.000,PGNGS_shapes_600ms_v11r1,2021.1.4,59.88382538,L_HalfOval.bmp,,,115.0,2,"['L_circle.bmp', 'L_diamond.bmp']",n,0.6,gng,,,,,
example2,example,1,2025-00-00_00h00.00.000,PGNGS_shapes_600ms_v11r1,2021.1.4,59.88382538,L_pentagon.bmp,,,116.0,2,"['L_circle.bmp', 'L_diamond.bmp']",n,0.6,gng,,,,,
example2,example,1,2025-00-00_00h00.00.000,PGNGS_shapes_600ms_v11r1,2021.1.4,59.88382538,L_diamond.bmp,,,117.0,2,"['L_circle.bmp', 'L_diamond.bmp']",n,0.6,gng,,,lure,rej,
example2,example,1,2025-00-00_00h00.00.000,PGNGS_shapes_600ms_v11r1,2021.1.4,59.88382538,L_parallelogram.bmp,,,118.0,2,"['L_circle.bmp', 'L_diamond.bmp']",n,0.6,gng,,,,,
example2,example,1,2025-00-00_00h00.00.000,PGNGS_shapes_600ms_v11r1,2021.1.4,59.88382538,L_pentagon.bmp,,,119.0,2,"['L_circle.bmp', 'L_diamond.bmp']",n,0.6,gng,,,,,
example2,example,1,2025-00-00_00h00.00.000,PGNGS_shapes_600ms_v11r1,2021.1.4,59.88382538,L_square.bmp,,,120.0,2,"['L_circle.bmp', 'L_diamond.bmp']",n,0.6,gng,,,,,
example2,example,1,2025-00-00_00h00.00.000,PGNGS_shapes_600ms_v11r1,2021.1.4,59.88382538,L_circle.bmp,n,0.4234,121.0,2,"['L_circle.bmp', 'L_diamond.bmp']",n,0.6,gng,,,target,hit,0.4234
example2,example,1,2025-00-00_00h00.00.000,PGNGS_shapes_600ms_v11r1,2021.1.4,59.88382538,L_parallelogram.bmp,,,122.0,2,"['L_circle.bmp', 'L_diamond.bmp']",n,0.6,gng,,,,,
example2,example,1,2025-00-00_00h00.00.000,PGNGS_shapes_600ms_v11r1,2021.1.4,59.88382538,L_square.bmp,,,123.0,2,"['L_circle.bmp', 'L_diamond.bmp']",n,0.6,gng,,,,,
example2,example,1,2025-00-00_00h00.00.000,PGNGS_shapes_600ms_v11r1,2021.1.4,59.88382538,L_pentagon.bmp,,,124.0,2,"['L_circle.bmp', 'L_diamond.bmp']",n,0.6,gng,,,,,
example2,example,1,2025-00-00_00h00.00.000,PGNGS_shapes_600ms_v11r1,2021.1.4,59.88382538,L_HalfOval.bmp,,,125.0,2,"['L_circle.bmp', 'L_diamond.bmp']",n,0.6,gng,,,,,
example2,example,1,2025-00-00_00h00.00.000,PGNGS_shapes_600ms_v11r1,2021.1.4,59.88382538,L_parallelogram.bmp,,,126.0,2,"['L_circle.bmp', 'L_diamond.bmp']",n,0.6,gng,,,,,
example2,example,1,2025-00-00_00h00.00.000,PGNGS_shapes_600ms_v11r1,2021.1.4,59.88382538,L_square.bmp,,,127.0,2,"['L_circle.bmp', 'L_diamond.bmp']",n,0.6,gng,,,,,
example2,example,1,2025-00-00_00h00.00.000,PGNGS_shapes_600ms_v11r1,2021.1.4,59.88382538,L_circle.bmp,,,128.0,2,"['L_circle.bmp', 'L_diamond.bmp']",n,0.6,gng,,,lure,rej,
example2,example,1,2025-00-00_00h00.00.000,PGNGS_shapes_600ms_v11r1,2021.1.4,59.88382538,L_parallelogram.bmp,,,129.0,2,"['L_circle.bmp', 'L_diamond.bmp']",n,0.6,gng,,,,,
example2,example,1,2025-00-00_00h00.00.000,PGNGS_shapes_600ms_v11r1,2021.1.4,59.88382538,L_square.bmp,,,130.0,2,"['L_circle.bmp', 'L_diamond.bmp']",n,0.6,gng,,,,,
example2,example,1,2025-00-00_00h00.00.000,PGNGS_shapes_600ms_v11r1,2021.1.4,59.88382538,L_HalfOval.bmp,,,131.0,2,"['L_circle.bmp', 'L_diamond.bmp']",n,0.6,gng,,,,,
example2,example,1,2025-00-00_00h00.00.000,PGNGS_shapes_600ms_v11r1,2021.1.4,59.88382538,L_diamond.bmp,n,0.4423,132.0,2,"['L_circle.bmp', 'L_diamond.bmp']",n,0.6,gng,,,target,hit,0.4423
example2,example,1,2025-00-00_00h00.00.000,PGNGS_shapes_600ms_v11r1,2021.1.4,59.88382538,L_HalfOval.bmp,,,133.0,2,"['L_circle.bmp', 'L_diamond.bmp']",n,0.6,gng,,,,,
example2,example,1,2025-00-00_00h00.00.000,PGNGS_shapes_600ms_v11r1,2021.1.4,59.88382538,L_parallelogram.bmp,,,134.0,2,"['L_circle.bmp', 'L_diamond.bmp']",n,0.6,gng,,,,,
example2,example,1,2025-00-00_00h00.00.000,PGNGS_shapes_600ms_v11r1,2021.1.4,59.88382538,L_pentagon.bmp,,,135.0,2,"['L_circle.bmp', 'L_diamond.bmp']",n,0.6,gng,,,,,
example2,example,1,2025-00-00_00h00.00.000,PGNGS_shapes_600ms_v11r1,2021.1.4,59.88382538,L_circle.bmp,n,0.5297,136.0,2,"['L_circle.bmp', 'L_diamond.bmp']",n,0.6,gng,,,target,hit,0.5297
example2,example,1,2025-00-00_00h00.00.000,PGNGS_shapes_600ms_v11r1,2021.1.4,59.88382538,L_parallelogram.bmp,,,137.0,2,"['L_circle.bmp', 'L_diamond.bmp']",n,0.6,gng,,,,,
example2,example,1,2025-00-00_00h00.00.000,PGNGS_shapes_600ms_v11r1,2021.1.4,59.88382538,L_square.bmp,,,138.0,2,"['L_circle.bmp', 'L_diamond.bmp']",n,0.6,gng,,,,,
example2,example,1,2025-00-00_00h00.00.000,PGNGS_shapes_600ms_v11r1,2021.1.4,59.88382538,L_diamond.bmp,n,0.4657,139.0,2,"['L_circle.bmp', 'L_diamond.bmp']",n,0.6,gng,,,target,hit,0.4657
example2,example,1,2025-00-00_00h00.00.000,PGNGS_shapes_600ms_v11r1,2021.1.4,59.88382538,L_square.bmp,,,140.0,2,"['L_circle.bmp', 'L_diamond.bmp']",n,0.6,gng,,,,,
example2,example,1,2025-00-00_00h00.00.000,PGNGS_shapes_600ms_v11r1,2021.1.4,59.88382538,L_HalfOval.bmp,,,141.0,2,"['L_circle.bmp', 'L_diamond.bmp']",n,0.6,gng,,,,,
example2,example,1,2025-00-00_00h00.00.000,PGNGS_shapes_600ms_v11r1,2021.1.4,59.88382538,L_circle.bmp,n,0.3879,142.0,2,"['L_circle.bmp', 'L_diamond.bmp']",n,0.6,gng,,,target,hit,0.3879
example2,example,1,2025-00-00_00h00.00.000,PGNGS_shapes_600ms_v11r1,2021.1.4,59.88382538,L_pentagon.bmp,,,143.0,2,"['L_circle.bmp', 'L_diamond.bmp']",n,0.6,gng,,,,,
example2,example,1,2025-00-00_00h00.00.000,PGNGS_shapes_600ms_v11r1,2021.1.4,59.88382538,L_square.bmp,,,144.0,2,"['L_circle.bmp', 'L_diamond.bmp']",n,0.6,gng,,,,,
example2,example,1,2025-00-00_00h00.00.000,PGNGS_shapes_600ms_v11r1,2021.1.4,59.88382538,L_parallelogram.bmp,,,145.0,2,"['L_circle.bmp', 'L_diamond.bmp']",n,0.6,gng,,,,,
example2,example,1,2025-00-00_00h00.00.000,PGNGS_shapes_600ms_v11r1,2021.1.4,59.88382538,L_HalfOval.bmp,,,146.0,2,"['L_circle.bmp', 'L_diamond.bmp']",n,0.6,gng,,,,,
example2,example,1,2025-00-00_00h00.00.000,PGNGS_shapes_600ms_v11r1,2021.1.4,59.88382538,L_pentagon.bmp,,,147.0,2,"['L_circle.bmp', 'L_diamond.bmp']",n,0.6,gng,,,,,
example2,example,1,2025-00-00_00h00.00.000,PGNGS_shapes_600ms_v11r1,2021.1.4,59.88382538,L_parallelogram.bmp,,,148.0,2,"['L_circle.bmp', 'L_diamond.bmp']",n,0.6,gng,,,,,
example2,example,1,2025-00-00_00h00.00.000,PGNGS_shapes_600ms_v11r1,2021.1.4,59.88382538,L_pentagon.bmp,,,149.0,2,"['L_circle.bmp', 'L_diamond.bmp']",n,0.6,gng,,,,,
example2,example,1,2025-00-00_00h00.00.000,PGNGS_shapes_600ms_v11r1,2021.1.4,59.88382538,L_diamond.bmp,n,0.4166,150.0,2,"['L_circle.bmp', 'L_diamond.bmp']",n,0.6,gng,,,target,hit,0.4166
example2,example,1,2025-00-00_00h00.00.000,PGNGS_shapes_600ms_v11r1,2021.1.4,59.88382538,L_pentagon.bmp,,,151.0,2,"['L_circle.bmp', 'L_diamond.bmp']",n,0.6,gng,,,,,
example2,example,1,2025-00-00_00h00.00.000,PGNGS_shapes_600ms_v11r1,2021.1.4,59.88382538,L_HalfOval.bmp,,,152.0,2,"['L_circle.bmp', 'L_diamond.bmp']",n,0.6,gng,,,,,
example2,example,1,2025-00-00_00h00.00.000,PGNGS_shapes_600ms_v11r1,2021.1.4,59.88382538,L_parallelogram.bmp,,,153.0,2,"['L_circle.bmp', 'L_diamond.bmp']",n,0.6,gng,,,,,
example2,example,1,2025-00-00_00h00.00.000,PGNGS_shapes_600ms_v11r1,2021.1.4,59.88382538,L_pentagon.bmp,,,154.0,2,"['L_circle.bmp', 'L_diamond.bmp']",n,0.6,gng,,,,,
example2,example,1,2025-00-00_00h00.00.000,PGNGS_shapes_600ms_v11r1,2021.1.4,59.88382538,L_HalfOval.bmp,,,155.0,2,"['L_circle.bmp', 'L_diamond.bmp']",n,0.6,gng,,,,,
example2,example,1,2025-00-00_00h00.00.000,PGNGS_shapes_600ms_v11r1,2021.1.4,59.88382538,L_square.bmp,,,156.0,2,"['L_circle.bmp', 'L_diamond.bmp']",n,0.6,gng,,,,,
example2,example,1,2025-00-00_00h00.00.000,PGNGS_shapes_600ms_v11r1,2021.1.4,59.88382538,L_pentagon.bmp,,,157.0,2,"['L_circle.bmp', 'L_diamond.bmp']",n,0.6,gng,,,,,
example2,example,1,2025-00-00_00h00.00.000,PGNGS_shapes_600ms_v11r1,2021.1.4,59.88382538,L_HalfOval.bmp,,,158.0,2,"['L_circle.bmp', 'L_diamond.bmp']",n,0.6,gng,,,,,
example2,example,1,2025-00-00_00h00.00.000,PGNGS_shapes_600ms_v11r1,2021.1.4,59.88382538,L_square.bmp,,,159.0,2,"['L_circle.bmp', 'L_diamond.bmp']",n,0.6,gng,,,,,
example2,example,1,2025-00-00_00h00.00.000,PGNGS_shapes_600ms_v11r1,2021.1.4,59.88382538,L_parallelogram.bmp,,,160.0,2,"['L_circle.bmp', 'L_diamond.bmp']",n,0.6,gng,,,,,
example2,example,1,2025-00-00_00h00.00.000,PGNGS_shapes_600ms_v11r1,2021.1.4,59.88382538,L_pentagon.bmp,,,161.0,2,"['L_circle.bmp', 'L_diamond.bmp']",n,0.6,gng,,,,,
example2,example,1,2025-00-00_00h00.00.000,PGNGS_shapes_600ms_v11r1,2021.1.4,59.88382538,L_HalfOval.bmp,,,162.0,2,"['L_circle.bmp', 'L_diamond.bmp']",n,0.6,gng,,,,,
example2,example,1,2025-00-00_00h00.00.000,PGNGS_shapes_600ms_v11r1,2021.1.4,59.88382538,L_parallelogram.bmp,,,163.0,2,"['L_circle.bmp', 'L_diamond.bmp']",n,0.6,gng,,,,,
example2,example,1,2025-00-00_00h00.00.000,PGNGS_shapes_600ms_v11r1,2021.1.4,59.88382538,L_square.bmp,,,164.0,2,"['L_circle.bmp', 'L_diamond.bmp']",n,0.6,gng,,,,,
example2,example,1,2025-00-00_00h00.00.000,PGNGS_shapes_600ms_v11r1,2021.1.4,59.88382538,L_HalfOval.bmp,,,165.0,2,"['L_circle.bmp', 'L_diamond.bmp']",n,0.6,gng,,,,,
example2,example,1,2025-00-00_00h00.00.000,PGNGS_shapes_600ms_v11r1,2021.1.4,59.88382538,L_diamond.bmp,,,166.0,2,"['L_circle.bmp', 'L_diamond.bmp']",n,0.6,gng,,,lure,rej,
example2,example,1,2025-00-00_00h00.00.000,PGNGS_shapes_600ms_v11r1,2021.1.4,59.88382538,L_parallelogram.bmp,,,167.0,2,"['L_circle.bmp', 'L_diamond.bmp']",n,0.6,gng,,,,,
example2,example,1,2025-00-00_00h00.00.000,PGNGS_shapes_600ms_v11r1,2021.1.4,59.88382538,L_pentagon.bmp,,,168.0,2,"['L_circle.bmp', 'L_diamond.bmp']",n,0.6,gng,,,,,
example2,example,1,2025-00-00_00h00.00.000,PGNGS_shapes_600ms_v11r1,2021.1.4,59.88382538,L_HalfOval.bmp,,,169.0,2,"['L_circle.bmp', 'L_diamond.bmp']",n,0.6,gng,,,,,
example2,example,1,2025-00-00_00h00.00.000,PGNGS_shapes_600ms_v11r1,2021.1.4,59.88382538,L_circle.bmp,n,0.4335,170.0,2,"['L_circle.bmp', 'L_diamond.bmp']",n,0.6,gng,,,target,hit,0.4335
example2,example,1,2025-00-00_00h00.00.000,PGNGS_shapes_600ms_v11r1,2021.1.4,59.88382538,L_square.bmp,,,171.0,2,"['L_circle.bmp', 'L_diamond.bmp']",n,0.6,gng,,,,,
example2,example,1,2025-00-00_00h00.00.000,PGNGS_shapes_600ms_v11r1,2021.1.4,59.88382538,L_pentagon.bmp,,,172.0,2,"['L_circle.bmp', 'L_diamond.bmp']",n,0.6,gng,,,,,
example2,example,1,2025-00-00_00h00.00.000,PGNGS_shapes_600ms_v11r1,2021.1.4,59.88382538,L_parallelogram.bmp,,,173.0,2,"['L_circle.bmp', 'L_diamond.bmp']",n,0.6,gng,,,,,
example2,example,1,2025-00-00_00h00.00.000,PGNGS_shapes_600ms_v11r1,2021.1.4,59.88382538,L_diamond.bmp,n,0.4324,174.0,2,"['L_circle.bmp', 'L_diamond.bmp']",n,0.6,gng,,,target,hit,0.4324
example2,example,1,2025-00-00_00h00.00.000,PGNGS_shapes_600ms_v11r1,2021.1.4,59.88382538,L_HalfOval.bmp,,,175.0,2,"['L_circle.bmp', 'L_diamond.bmp']",n,0.6,gng,,,,,
example2,example,1,2025-00-00_00h00.00.000,PGNGS_shapes_600ms_v11r1,2021.1.4,59.88382538,L_square.bmp,,,176.0,2,"['L_circle.bmp', 'L_diamond.bmp']",n,0.6,gng,,,,,
example2,example,1,2025-00-00_00h00.00.000,PGNGS_shapes_600ms_v11r1,2021.1.4,59.88382538,L_parallelogram.bmp,,,177.0,2,"['L_circle.bmp', 'L_diamond.bmp']",n,0.6,gng,,,,,
example2,example,1,2025-00-00_00h00.00.000,PGNGS_shapes_600ms_v11r1,2021.1.4,59.88382538,L_diamond.bmp,,,178.0,2,"['L_circle.bmp', 'L_diamond.bmp']",n,0.6,gng,,,lure,rej,
example2,example,1,2025-00-00_00h00.00.000,PGNGS_shapes_600ms_v11r1,2021.1.4,59.88382538,L_square.bmp,,,179.0,2,"['L_circle.bmp', 'L_diamond.bmp']",n,0.6,gng,,,,,
example2,example,1,2025-00-00_00h00.00.000,PGNGS_shapes_600ms_v11r1,2021.1.4,59.88382538,L_HalfOval.bmp,,,180.0,2,"['L_circle.bmp', 'L_diamond.bmp']",n,0.6,gng,,,,,
example2,example,1,2025-00-00_00h00.00.000,PGNGS_shapes_600ms_v11r1,2021.1.4,59.88382538,L_parallelogram.bmp,,,181.0,2,"['L_circle.bmp', 'L_diamond.bmp']",n,0.6,gng,,,,,
example2,example,1,2025-00-00_00h00.00.000,PGNGS_shapes_600ms_v11r1,2021.1.4,59.88382538,L_square.bmp,,,182.0,2,"['L_circle.bmp', 'L_diamond.bmp']",n,0.6,gng,,,,,
example2,example,1,2025-00-00_00h00.00.000,PGNGS_shapes_600ms_v11r1,2021.1.4,59.88382538,L_pentagon.bmp,,,183.0,2,"['L_circle.bmp', 'L_diamond.bmp']",n,0.6,gng,,,,,
example2,example,1,2025-00-00_00h00.00.000,PGNGS_shapes_600ms_v11r1,2021.1.4,59.88382538,L_HalfOval.bmp,,,184.0,2,"['L_circle.bmp', 'L_diamond.bmp']",n,0.6,gng,,,,,
example2,example,1,2025-00-00_00h00.00.000,PGNGS_shapes_600ms_v11r1,2021.1.4,59.88382538,L_parallelogram.bmp,,,185.0,2,"['L_circle.bmp', 'L_diamond.bmp']",n,0.6,gng,,,,,
example2,example,1,2025-00-00_00h00.00.000,PGNGS_shapes_600ms_v11r1,2021.1.4,59.88382538,L_pentagon.bmp,,,186.0,2,"['L_circle.bmp', 'L_diamond.bmp']",n,0.6,gng,,,,,
example2,example,1,2025-00-00_00h00.00.000,PGNGS_shapes_600ms_v11r1,2021.1.4,59.88382538,L_HalfOval.bmp,,,187.0,2,"['L_circle.bmp', 'L_diamond.bmp']",n,0.6,gng,,,,,
example2,example,1,2025-00-00_00h00.00.000,PGNGS_shapes_600ms_v11r1,2021.1.4,59.88382538,L_circle.bmp,n,0.4631,188.0,2,"['L_circle.bmp', 'L_diamond.bmp']",n,0.6,gng,,,target,hit,0.4631
example2,example,1,2025-00-00_00h00.00.000,PGNGS_shapes_600ms_v11r1,2021.1.4,59.88382538,L_parallelogram.bmp,,,189.0,2,"['L_circle.bmp', 'L_diamond.bmp']",n,0.6,gng,,,,,
example2,example,1,2025-00-00_00h00.00.000,PGNGS_shapes_600ms_v11r1,2021.1.4,59.88382538,L_pentagon.bmp,,,190.0,2,"['L_circle.bmp', 'L_diamond.bmp']",n,0.6,gng,,,,,
example2,example,1,2025-00-00_00h00.00.000,PGNGS_shapes_600ms_v11r1,2021.1.4,59.88382538,L_HalfOval.bmp,,,191.0,2,"['L_circle.bmp', 'L_diamond.bmp']",n,0.6,gng,,,,,
example2,example,1,2025-00-00_00h00.00.000,PGNGS_shapes_600ms_v11r1,2021.1.4,59.88382538,L_diamond.bmp,,,192.0,2,"['L_circle.bmp', 'L_diamond.bmp']",n,0.6,gng,,,target,om,
example2,example,1,2025-00-00_00h00.00.000,PGNGS_shapes_600ms_v11r1,2021.1.4,59.88382538,L_square.bmp,,,193.0,2,"['L_circle.bmp', 'L_diamond.bmp']",n,0.6,gng,,,,,
example2,example,1,2025-00-00_00h00.00.000,PGNGS_shapes_600ms_v11r1,2021.1.4,59.88382538,L_parallelogram.bmp,,,194.0,2,"['L_circle.bmp', 'L_diamond.bmp']",n,0.6,gng,,,,,
example2,example,1,2025-00-00_00h00.00.000,PGNGS_shapes_600ms_v11r1,2021.1.4,59.88382538,L_HalfOval.bmp,,,195.0,2,"['L_circle.bmp', 'L_diamond.bmp']",n,0.6,gng,,,,,
example2,example,1,2025-00-00_00h00.00.000,PGNGS_shapes_600ms_v11r1,2021.1.4,59.88382538,L_pentagon.bmp,,,196.0,2,"['L_circle.bmp', 'L_diamond.bmp']",n,0.6,gng,,,,,
example2,example,1,2025-00-00_00h00.00.000,PGNGS_shapes_600ms_v11r1,2021.1.4,59.88382538,L_circle.bmp,,,197.0,2,"['L_circle.bmp', 'L_diamond.bmp']",n,0.6,gng,,,target,om,
example2,example,1,2025-00-00_00h00.00.000,PGNGS_shapes_600ms_v11r1,2021.1.4,59.88382538,L_HalfOval.bmp,,,198.0,2,"['L_circle.bmp', 'L_diamond.bmp']",n,0.6,gng,,,,,
example2,example,1,2025-00-00_00h00.00.000,PGNGS_shapes_600ms_v11r1,2021.1.4,59.88382538,L_square.bmp,,,199.0,2,"['L_circle.bmp', 'L_diamond.bmp']",n,0.6,gng,,,,,
example2,example,1,2025-00-00_00h00.00.000,PGNGS_shapes_600ms_v11r1,2021.1.4,59.88382538,L_circle.bmp,,,200.0,2,"['L_circle.bmp', 'L_diamond.bmp']",n,0.6,gng,,,lure,mo,
example2,example,1,2025-00-00_00h00.00.000,PGNGS_shapes_600ms_v11r1,2021.1.4,59.88382538,L_square.bmp,,,201.0,2,"['L_circle.bmp', 'L_diamond.bmp']",n,0.6,gng,,,,,
example2,example,1,2025-00-00_00h00.00.000,PGNGS_shapes_600ms_v11r1,2021.1.4,59.88382538,L_parallelogram.bmp,,,202.0,2,"['L_circle.bmp', 'L_diamond.bmp']",n,0.6,gng,,,,,
example2,example,1,2025-00-00_00h00.00.000,PGNGS_shapes_600ms_v11r1,2021.1.4,59.88382538,L_HalfOval.bmp,,,203.0,2,"['L_circle.bmp', 'L_diamond.bmp']",n,0.6,gng,,,,,
example2,example,1,2025-00-00_00h00.00.000,PGNGS_shapes_600ms_v11r1,2021.1.4,59.88382538,L_pentagon.bmp,,,204.0,2,"['L_circle.bmp', 'L_diamond.bmp']",n,0.6,gng,,,,,
example2,example,1,2025-00-00_00h00.00.000,PGNGS_shapes_600ms_v11r1,2021.1.4,59.88382538,L_parallelogram.bmp,,,205.0,2,"['L_circle.bmp', 'L_diamond.bmp']",n,0.6,gng,,,,,
example2,example,1,2025-00-00_00h00.00.000,PGNGS_shapes_600ms_v11r1,2021.1.4,59.88382538,L_square.bmp,,,206.0,2,"['L_circle.bmp', 'L_diamond.bmp']",n,0.6,gng,,,,,
example2,example,1,2025-00-00_00h00.00.000,PGNGS_shapes_600ms_v11r1,2021.1.4,59.88382538,L_HalfOval.bmp,,,207.0,2,"['L_circle.bmp', 'L_diamond.bmp']",n,0.6,gng,,,,,
example2,example,1,2025-00-00_00h00.00.000,PGNGS_shapes_600ms_v11r1,2021.1.4,59.88382538,L_pentagon.bmp,,,208.0,2,"['L_circle.bmp', 'L_diamond.bmp']",n,0.6,gng,,,,,
example2,example,1,2025-00-00_00h00.00.000,PGNGS_shapes_600ms_v11r1,2021.1.4,59.88382538,L_parallelogram.bmp,,,209.0,2,"['L_circle.bmp', 'L_diamond.bmp']",n,0.6,gng,,,,,
example2,example,1,2025-00-00_00h00.00.000,PGNGS_shapes_600ms_v11r1,2021.1.4,59.88382538,L_square.bmp,,,210.0,2,"['L_circle.bmp', 'L_diamond.bmp']",n,0.6,gng,,,,,
example2,example,1,2025-00-00_00h00.00.000,PGNGS_shapes_600ms_v11r1,2021.1.4,59.88382538,L_diamond.bmp,n,0.4324,211.0,2,"['L_circle.bmp', 'L_diamond.bmp']",n,0.6,gng,,,target,hit,0.4324
example2,example,1,2025-00-00_00h00.00.000,PGNGS_shapes_600ms_v11r1,2021.1.4,59.88382538,L_pentagon.bmp,,,212.0,2,"['L_circle.bmp', 'L_diamond.bmp']",n,0.6,gng,,,,,
example2,example,1,2025-00-00_00h00.00.000,PGNGS_shapes_600ms_v11r1,2021.1.4,59.88382538,L_parallelogram.bmp,,,213.0,2,"['L_circle.bmp', 'L_diamond.bmp']",n,0.6,gng,,,,,
example2,example,1,2025-00-00_00h00.00.000,PGNGS_shapes_600ms_v11r1,2021.1.4,59.88382538,L_HalfOval.bmp,,,214.0,2,"['L_circle.bmp', 'L_diamond.bmp']",n,0.6,gng,,,,,
example2,example,1,2025-00-00_00h00.00.000,PGNGS_shapes_600ms_v11r1,2021.1.4,59.88382538,L_square.bmp,,,215.0,2,"['L_circle.bmp', 'L_diamond.bmp']",n,0.6,gng,,,,,
example2,example,1,2025-00-00_00h00.00.000,PGNGS_shapes_600ms_v11r1,2021.1.4,59.88382538,L_circle.bmp,n,0.5065,216.0,2,"['L_circle.bmp', 'L_diamond.bmp']",n,0.6,gng,,,target,hit,0.5065
example2,example,1,2025-00-00_00h00.00.000,PGNGS_shapes_600ms_v11r1,2021.1.4,59.88382538,L_parallelogram.bmp,,,217.0,2,"['L_circle.bmp', 'L_diamond.bmp']",n,0.6,gng,,,,,
example2,example,1,2025-00-00_00h00.00.000,PGNGS_shapes_600ms_v11r1,2021.1.4,59.88382538,L_pentagon.bmp,,,218.0,2,"['L_circle.bmp', 'L_diamond.bmp']",n,0.6,gng,,,,,
example2,example,1,2025-00-00_00h00.00.000,PGNGS_shapes_600ms_v11r1,2021.1.4,59.88382538,L_HalfOval.bmp,,,219.0,2,"['L_circle.bmp', 'L_diamond.bmp']",n,0.6,gng,,,,,
example2,example,1,2025-00-00_00h00.00.000,PGNGS_shapes_600ms_v11r1,2021.1.4,59.88382538,L_circle.bmp,n,0.5293,220.0,2,"['L_circle.bmp', 'L_diamond.bmp']",n,0.6,gng,,,lure,com,0.5293
example2,example,1,2025-00-00_00h00.00.000,PGNGS_shapes_600ms_v11r1,2021.1.4,59.88382538,L_parallelogram.bmp,,,221.0,2,"['L_circle.bmp', 'L_diamond.bmp']",n,0.6,gng,,,,,
example2,example,1,2025-00-00_00h00.00.000,PGNGS_shapes_600ms_v11r1,2021.1.4,59.88382538,L_square.bmp,,,222.0,2,"['L_circle.bmp', 'L_diamond.bmp']",n,0.6,gng,,,,,
example2,example,1,2025-00-00_00h00.00.000,PGNGS_shapes_600ms_v11r1,2021.1.4,59.88382538,L_pentagon.bmp,,,223.0,2,"['L_circle.bmp', 'L_diamond.bmp']",n,0.6,gng,,,,,
example2,example,1,2025-00-00_00h00.00.000,PGNGS_shapes_600ms_v11r1,2021.1.4,59.88382538,L_HalfOval.bmp,,,224.0,2,"['L_circle.bmp', 'L_diamond.bmp']",n,0.6,gng,,,,,
example2,example,1,2025-00-00_00h00.00.000,PGNGS_shapes_600ms_v11r1,2021.1.4,59.88382538,L_pentagon.bmp,,,225.0,2,"['L_circle.bmp', 'L_diamond.bmp']",n,0.6,gng,,,,,
example2,example,1,2025-00-00_00h00.00.000,PGNGS_shapes_600ms_v11r1,2021.1.4,59.88382538,L_diamond.bmp,,,226.0,2,"['L_circle.bmp', 'L_diamond.bmp']",n,0.6,gng,,,target,om,
example2,example,1,2025-00-00_00h00.00.000,PGNGS_shapes_600ms_v11r1,2021.1.4,59.88382538,L_HalfOval.bmp,,,227.0,2,"['L_circle.bmp', 'L_diamond.bmp']",n,0.6,gng,,,,,
example2,example,1,2025-00-00_00h00.00.000,PGNGS_shapes_600ms_v11r1,2021.1.4,59.88382538,L_square.bmp,,,228.0,2,"['L_circle.bmp', 'L_diamond.bmp']",n,0.6,gng,,,,,
example2,example,1,2025-00-00_00h00.00.000,PGNGS_shapes_600ms_v11r1,2021.1.4,59.88382538,L_parallelogram.bmp,,,229.0,2,"['L_circle.bmp', 'L_diamond.bmp']",n,0.6,gng,,,,,
example2,example,1,2025-00-00_00h00.00.000,PGNGS_shapes_600ms_v11r1,2021.1.4,59.88382538,L_HalfOval.bmp,,,230.0,2,"['L_circle.bmp', 'L_diamond.bmp']",n,0.6,gng,,,,,
example2,example,1,2025-00-00_00h00.00.000,PGNGS_shapes_600ms_v11r1,2021.1.4,59.88382538,L_pentagon.bmp,,,231.0,2,"['L_circle.bmp', 'L_diamond.bmp']",n,0.6,gng,,,,,
example2,example,1,2025-00-00_00h00.00.000,PGNGS_shapes_600ms_v11r1,2021.1.4,59.88382538,L_square.bmp,,,232.0,2,"['L_circle.bmp', 'L_diamond.bmp']",n,0.6,gng,,,,,
example2,example,1,2025-00-00_00h00.00.000,PGNGS_shapes_600ms_v11r1,2021.1.4,59.88382538,L_parallelogram.bmp,,,233.0,2,"['L_circle.bmp', 'L_diamond.bmp']",n,0.6,gng,,,,,
example2,example,1,2025-00-00_00h00.00.000,PGNGS_shapes_600ms_v11r1,2021.1.4,59.88382538,L_HalfOval.bmp,,,234.0,2,"['L_circle.bmp', 'L_diamond.bmp']",n,0.6,gng,,,,,
example2,example,1,2025-00-00_00h00.00.000,PGNGS_shapes_600ms_v11r1,2021.1.4,59.88382538,L_square.bmp,,,235.0,2,"['L_circle.bmp', 'L_diamond.bmp']",n,0.6,gng,,,,,
example2,example,1,2025-00-00_00h00.00.000,PGNGS_shapes_600ms_v11r1,2021.1.4,59.88382538,L_pentagon.bmp,,,236.0,2,"['L_circle.bmp', 'L_diamond.bmp']",n,0.6,gng,,,,,
example2,example,1,2025-00-00_00h00.00.000,PGNGS_shapes_600ms_v11r1,2021.1.4,59.88382538,L_HalfOval.bmp,,,237.0,2,"['L_circle.bmp', 'L_diamond.bmp']",n,0.6,gng,,,,,
example2,example,1,2025-00-00_00h00.00.000,PGNGS_shapes_600ms_v11r1,2021.1.4,59.88382538,L_circle.bmp,,,238.0,2,"['L_circle.bmp', 'L_diamond.bmp']",n,0.6,gng,,,target,om,
example2,example,1,2025-00-00_00h00.00.000,PGNGS_shapes_600ms_v11r1,2021.1.4,59.88382538,L_square.bmp,,,239.0,2,"['L_circle.bmp', 'L_diamond.bmp']",n,0.6,gng,,,,,
example2,example,1,2025-00-00_00h00.00.000,PGNGS_shapes_600ms_v11r1,2021.1.4,59.88382538,L_parallelogram.bmp,,,240.0,2,"['L_circle.bmp', 'L_diamond.bmp']",n,0.6,gng,,,,,
example2,example,1,2025-00-00_00h00.00.000,PGNGS_shapes_600ms_v11r1,2021.1.4,59.88382538,L_pentagon.bmp,,,241.0,2,"['L_circle.bmp', 'L_diamond.bmp']",n,0.6,gng,,,,,
example2,example,1,2025-00-00_00h00.00.000,PGNGS_shapes_600ms_v11r1,2021.1.4,59.88382538,L_HalfOval.bmp,,,242.0,2,"['L_circle.bmp', 'L_diamond.bmp']",n,0.6,gng,,,,,
example2,example,1,2025-00-00_00h00.00.000,PGNGS_shapes_600ms_v11r1,2021.1.4,59.88382538,L_square.bmp,,,243.0,2,"['L_circle.bmp', 'L_diamond.bmp']",n,0.6,gng,,,,,
example2,example,1,2025-00-00_00h00.00.000,PGNGS_shapes_600ms_v11r1,2021.1.4,59.88382538,L_pentagon.bmp,,,244.0,2,"['L_circle.bmp', 'L_diamond.bmp']",n,0.6,gng,,,,,
example2,example,1,2025-00-00_00h00.00.000,PGNGS_shapes_600ms_v11r1,2021.1.4,59.88382538,L_HalfOval.bmp,,,245.0,2,"['L_circle.bmp', 'L_diamond.bmp']",n,0.6,gng,,,,,
example2,example,1,2025-00-00_00h00.00.000,PGNGS_shapes_600ms_v11r1,2021.1.4,59.88382538,L_parallelogram.bmp,,,246.0,2,"['L_circle.bmp', 'L_diamond.bmp']",n,0.6,gng,,,,,
example2,example,1,2025-00-00_00h00.00.000,PGNGS_shapes_600ms_v11r1,2021.1.4,59.88382538,L_square.bmp,,,247.0,2,"['L_circle.bmp', 'L_diamond.bmp']",n,0.6,gng,,,,,
example2,example,1,2025-00-00_00h00.00.000,PGNGS_shapes_600ms_v11r1,2021.1.4,59.88382538,L_circle.bmp,n,0.5571,248.0,2,"['L_circle.bmp', 'L_diamond.bmp']",n,0.6,gng,,,lure,mo,0.5571
example2,example,1,2025-00-00_00h00.00.000,PGNGS_shapes_600ms_v11r1,2021.1.4,59.88382538,L_HalfOval.bmp,,,249.0,2,"['L_circle.bmp', 'L_diamond.bmp']",n,0.6,gng,,,,,
example2,example,1,2025-00-00_00h00.00.000,PGNGS_shapes_600ms_v11r1,2021.1.4,59.88382538,L_pentagon.bmp,,,250.0,2,"['L_circle.bmp', 'L_diamond.bmp']",n,0.6,gng,,,,,
example2,example,1,2025-00-00_00h00.00.000,PGNGS_shapes_600ms_v11r1,2021.1.4,59.88382538,L_square.bmp,,,251.0,2,"['L_circle.bmp', 'L_diamond.bmp']",n,0.6,gng,,,,,
example2,example,1,2025-00-00_00h00.00.000,PGNGS_shapes_600ms_v11r1,2021.1.4,59.88382538,L_pentagon.bmp,,,252.0,2,"['L_circle.bmp', 'L_diamond.bmp']",n,0.6,gng,,,,,
example2,example,1,2025-00-00_00h00.00.000,PGNGS_shapes_600ms_v11r1,2021.1.4,59.88382538,L_parallelogram.bmp,,,253.0,2,"['L_circle.bmp', 'L_diamond.bmp']",n,0.6,gng,,,,,
example2,example,1,2025-00-00_00h00.00.000,PGNGS_shapes_600ms_v11r1,2021.1.4,59.88382538,L_HalfOval.bmp,,,254.0,2,"['L_circle.bmp', 'L_diamond.bmp']",n,0.6,gng,,,,,
example2,example,1,2025-00-00_00h00.00.000,PGNGS_shapes_600ms_v11r1,2021.1.4,59.88382538,L_pentagon.bmp,,,255.0,2,"['L_circle.bmp', 'L_diamond.bmp']",n,0.6,gng,,,,,
example2,example,1,2025-00-00_00h00.00.000,PGNGS_shapes_600ms_v11r1,2021.1.4,59.88382538,L_parallelogram.bmp,,,256.0,2,"['L_circle.bmp', 'L_diamond.bmp']",n,0.6,gng,,,,,
example2,example,1,2025-00-00_00h00.00.000,PGNGS_shapes_600ms_v11r1,2021.1.4,59.88382538,L_square.bmp,,,257.0,2,"['L_circle.bmp', 'L_diamond.bmp']",n,0.6,gng,,,,,
example2,example,1,2025-00-00_00h00.00.000,PGNGS_shapes_600ms_v11r1,2021.1.4,59.88382538,L_HalfOval.bmp,,,258.0,2,"['L_circle.bmp', 'L_diamond.bmp']",n,0.6,gng,,,,,
example2,example,1,2025-00-00_00h00.00.000,PGNGS_shapes_600ms_v11r1,2021.1.4,59.88382538,L_pentagon.bmp,,,259.0,2,"['L_circle.bmp', 'L_diamond.bmp']",n,0.6,gng,,,,,
example2,example,1,2025-00-00_00h00.00.000,PGNGS_shapes_600ms_v11r1,2021.1.4,59.88382538,L_square.bmp,,,260.0,2,"['L_circle.bmp', 'L_diamond.bmp']",n,0.6,gng,,,,,
example2,example,1,2025-00-00_00h00.00.000,PGNGS_shapes_600ms_v11r1,2021.1.4,59.88382538,L_diamond.bmp,n,0.4919,261.0,2,"['L_circle.bmp', 'L_diamond.bmp']",n,0.6,gng,,,target,hit,0.4919
example2,example,1,2025-00-00_00h00.00.000,PGNGS_shapes_600ms_v11r1,2021.1.4,59.88382538,L_HalfOval.bmp,,,262.0,2,"['L_circle.bmp', 'L_diamond.bmp']",n,0.6,gng,,,,,
example2,example,1,2025-00-00_00h00.00.000,PGNGS_shapes_600ms_v11r1,2021.1.4,59.88382538,L_pentagon.bmp,,,263.0,2,"['L_circle.bmp', 'L_diamond.bmp']",n,0.6,gng,,,,,
example2,example,1,2025-00-00_00h00.00.000,PGNGS_shapes_600ms_v11r1,2021.1.4,59.88382538,L_circle.bmp,,,264.0,2,"['L_circle.bmp', 'L_diamond.bmp']",n,0.6,gng,,,target,hit,0.6164999999999999
example2,example,1,2025-00-00_00h00.00.000,PGNGS_shapes_600ms_v11r1,2021.1.4,59.88382538,L_HalfOval.bmp,n,0.0165,265.0,2,"['L_circle.bmp', 'L_diamond.bmp']",n,0.6,gng,,,,,
example2,example,1,2025-00-00_00h00.00.000,PGNGS_shapes_600ms_v11r1,2021.1.4,59.88382538,L_pentagon.bmp,,,266.0,2,"['L_circle.bmp', 'L_diamond.bmp']",n,0.6,gng,,,,,
example2,example,1,2025-00-00_00h00.00.000,PGNGS_shapes_600ms_v11r1,2021.1.4,59.88382538,L_parallelogram.bmp,,,267.0,2,"['L_circle.bmp', 'L_diamond.bmp']",n,0.6,gng,,,,,
example2,example,1,2025-00-00_00h00.00.000,PGNGS_shapes_600ms_v11r1,2021.1.4,59.88382538,L_square.bmp,,,268.0,2,"['L_circle.bmp', 'L_diamond.bmp']",n,0.6,gng,,,,,
example2,example,1,2025-00-00_00h00.00.000,PGNGS_shapes_600ms_v11r1,2021.1.4,59.88382538,L_circle.bmp,,,269.0,2,"['L_circle.bmp', 'L_diamond.bmp']",n,0.6,gng,,,lure,rej,
example2,example,1,2025-00-00_00h00.00.000,PGNGS_shapes_600ms_v11r1,2021.1.4,59.88382538,L_square.bmp,,,270.0,2,"['L_circle.bmp', 'L_diamond.bmp']",n,0.6,gng,,,,,
example2,example,1,2025-00-00_00h00.00.000,PGNGS_shapes_600ms_v11r1,2021.1.4,59.88382538,L_parallelogram.bmp,,,271.0,2,"['L_circle.bmp', 'L_diamond.bmp']",n,0.6,gng,,,,,
example2,example,1,2025-00-00_00h00.00.000,PGNGS_shapes_600ms_v11r1,2021.1.4,59.88382538,L_diamond.bmp,n,0.5656,272.0,2,"['L_circle.bmp', 'L_diamond.bmp']",n,0.6,gng,,,target,hit,0.5656
example2,example,1,2025-00-00_00h00.00.000,PGNGS_shapes_600ms_v11r1,2021.1.4,59.88382538,L_HalfOval.bmp,,,273.0,2,"['L_circle.bmp', 'L_diamond.bmp']",n,0.6,gng,,,,,
example2,example,1,2025-00-00_00h00.00.000,PGNGS_shapes_600ms_v11r1,2021.1.4,59.88382538,L_square.bmp,,,274.0,2,"['L_circle.bmp', 'L_diamond.bmp']",n,0.6,gng,,,,,
example2,example,1,2025-00-00_00h00.00.000,PGNGS_shapes_600ms_v11r1,2021.1.4,59.88382538,L_parallelogram.bmp,,,275.0,2,"['L_circle.bmp', 'L_diamond.bmp']",n,0.6,gng,,,,,
example2,example,1,2025-00-00_00h00.00.000,PGNGS_shapes_600ms_v11r1,2021.1.4,59.88382538,L_pentagon.bmp,,,0.0,3,"['L_circle.bmp', 'L_diamond.bmp']",n,0.6,gs,0.6,Stop.bmp,,,
example2,example,1,2025-00-00_00h00.00.000,PGNGS_shapes_600ms_v11r1,2021.1.4,59.88382538,L_square.bmp,,,1.0,3,"['L_circle.bmp', 'L_diamond.bmp']",n,0.6,gs,0.6,Stop.bmp,,,
example2,example,1,2025-00-00_00h00.00.000,PGNGS_shapes_600ms_v11r1,2021.1.4,59.88382538,L_HalfOval.bmp,,,2.0,3,"['L_circle.bmp', 'L_diamond.bmp']",n,0.6,gs,0.6,Stop.bmp,,,
example2,example,1,2025-00-00_00h00.00.000,PGNGS_shapes_600ms_v11r1,2021.1.4,59.88382538,L_diamond.bmp,,,3.0,3,"['L_circle.bmp', 'L_diamond.bmp']",n,0.6,gs,0.6,Stop.bmp,target,om,
example2,example,1,2025-00-00_00h00.00.000,PGNGS_shapes_600ms_v11r1,2021.1.4,59.88382538,L_parallelogram.bmp,,,4.0,3,"['L_circle.bmp', 'L_diamond.bmp']",n,0.6,gs,0.6,Stop.bmp,,,
example2,example,1,2025-00-00_00h00.00.000,PGNGS_shapes_600ms_v11r1,2021.1.4,59.88382538,L_square.bmp,,,5.0,3,"['L_circle.bmp', 'L_diamond.bmp']",n,0.6,gs,0.6,Stop.bmp,,,
example2,example,1,2025-00-00_00h00.00.000,PGNGS_shapes_600ms_v11r1,2021.1.4,59.88382538,L_pentagon.bmp,,,6.0,3,"['L_circle.bmp', 'L_diamond.bmp']",n,0.6,gs,0.6,Stop.bmp,,,
example2,example,1,2025-00-00_00h00.00.000,PGNGS_shapes_600ms_v11r1,2021.1.4,59.88382538,L_square.bmp,,,7.0,3,"['L_circle.bmp', 'L_diamond.bmp']",n,0.6,gs,0.6,Stop.bmp,,,
example2,example,1,2025-00-00_00h00.00.000,PGNGS_shapes_600ms_v11r1,2021.1.4,59.88382538,L_parallelogram.bmp,,,8.0,3,"['L_circle.bmp', 'L_diamond.bmp']",n,0.6,gs,0.6,Stop.bmp,,,
example2,example,1,2025-00-00_00h00.00.000,PGNGS_shapes_600ms_v11r1,2021.1.4,59.88382538,L_circle.bmp,n,0.4806,9.0,3,"['L_circle.bmp', 'L_diamond.bmp']",n,0.6,gs,0.6,Stop.bmp,target,hit,0.4806
example2,example,1,2025-00-00_00h00.00.000,PGNGS_shapes_600ms_v11r1,2021.1.4,59.88382538,L_pentagon.bmp,,,10.0,3,"['L_circle.bmp', 'L_diamond.bmp']",n,0.6,gs,0.6,Stop.bmp,,,
example2,example,1,2025-00-00_00h00.00.000,PGNGS_shapes_600ms_v11r1,2021.1.4,59.88382538,L_square.bmp,,,11.0,3,"['L_circle.bmp', 'L_diamond.bmp']",n,0.6,gs,0.6,Stop.bmp,,,
example2,example,1,2025-00-00_00h00.00.000,PGNGS_shapes_600ms_v11r1,2021.1.4,59.88382538,L_HalfOval.bmp,,,12.0,3,"['L_circle.bmp', 'L_diamond.bmp']",n,0.6,gs,0.6,Stop.bmp,,,
example2,example,1,2025-00-00_00h00.00.000,PGNGS_shapes_600ms_v11r1,2021.1.4,59.88382538,L_pentagon.bmp,,,13.0,3,"['L_circle.bmp', 'L_diamond.bmp']",n,0.6,gs,0.6,Stop.bmp,,,
example2,example,1,2025-00-00_00h00.00.000,PGNGS_shapes_600ms_v11r1,2021.1.4,59.88382538,L_parallelogram.bmp,,,14.0,3,"['L_circle.bmp', 'L_diamond.bmp']",n,0.6,gs,0.6,Stop.bmp,,,
example2,example,1,2025-00-00_00h00.00.000,PGNGS_shapes_600ms_v11r1,2021.1.4,59.88382538,L_square.bmp,,,15.0,3,"['L_circle.bmp', 'L_diamond.bmp']",n,0.6,gs,0.6,Stop.bmp,,,
example2,example,1,2025-00-00_00h00.00.000,PGNGS_shapes_600ms_v11r1,2021.1.4,59.88382538,L_diamond.bmp,,,16.0,3,"['L_circle.bmp', 'L_diamond.bmp']",n,0.25,gs,0.25,Stop.bmp,lure,rej,
example2,example,1,2025-00-00_00h00.00.000,PGNGS_shapes_600ms_v11r1,2021.1.4,59.88382538,Stop.bmp,,,17.0,3,"['L_circle.bmp', 'L_diamond.bmp']",n,0.45,gs,0.45,Stop.bmp,,,
example2,example,1,2025-00-00_00h00.00.000,PGNGS_shapes_600ms_v11r1,2021.1.4,59.88382538,L_HalfOval.bmp,,,18.0,3,"['L_circle.bmp', 'L_diamond.bmp']",n,0.6,gs,0.6,Stop.bmp,,,
example2,example,1,2025-00-00_00h00.00.000,PGNGS_shapes_600ms_v11r1,2021.1.4,59.88382538,L_parallelogram.bmp,,,19.0,3,"['L_circle.bmp', 'L_diamond.bmp']",n,0.6,gs,0.6,Stop.bmp,,,
example2,example,1,2025-00-00_00h00.00.000,PGNGS_shapes_600ms_v11r1,2021.1.4,59.88382538,L_square.bmp,,,20.0,3,"['L_circle.bmp', 'L_diamond.bmp']",n,0.6,gs,0.6,Stop.bmp,,,
example2,example,1,2025-00-00_00h00.00.000,PGNGS_shapes_600ms_v11r1,2021.1.4,59.88382538,L_pentagon.bmp,,,21.0,3,"['L_circle.bmp', 'L_diamond.bmp']",n,0.6,gs,0.6,Stop.bmp,,,
example2,example,1,2025-00-00_00h00.00.000,PGNGS_shapes_600ms_v11r1,2021.1.4,59.88382538,L_circle.bmp,,,22.0,3,"['L_circle.bmp', 'L_diamond.bmp']",n,0.6,gs,0.6,Stop.bmp,target,om,
example2,example,1,2025-00-00_00h00.00.000,PGNGS_shapes_600ms_v11r1,2021.1.4,59.88382538,L_parallelogram.bmp,,,23.0,3,"['L_circle.bmp', 'L_diamond.bmp']",n,0.6,gs,0.6,Stop.bmp,,,
example2,example,1,2025-00-00_00h00.00.000,PGNGS_shapes_600ms_v11r1,2021.1.4,59.88382538,L_pentagon.bmp,,,24.0,3,"['L_circle.bmp', 'L_diamond.bmp']",n,0.6,gs,0.6,Stop.bmp,,,
example2,example,1,2025-00-00_00h00.00.000,PGNGS_shapes_600ms_v11r1,2021.1.4,59.88382538,L_square.bmp,,,25.0,3,"['L_circle.bmp', 'L_diamond.bmp']",n,0.6,gs,0.6,Stop.bmp,,,
example2,example,1,2025-00-00_00h00.00.000,PGNGS_shapes_600ms_v11r1,2021.1.4,59.88382538,L_diamond.bmp,n,0.5006,26.0,3,"['L_circle.bmp', 'L_diamond.bmp']",n,0.6,gs,0.6,Stop.bmp,target,hit,0.5006
example2,example,1,2025-00-00_00h00.00.000,PGNGS_shapes_600ms_v11r1,2021.1.4,59.88382538,L_HalfOval.bmp,,,27.0,3,"['L_circle.bmp', 'L_diamond.bmp']",n,0.6,gs,0.6,Stop.bmp,,,
example2,example,1,2025-00-00_00h00.00.000,PGNGS_shapes_600ms_v11r1,2021.1.4,59.88382538,L_square.bmp,,,28.0,3,"['L_circle.bmp', 'L_diamond.bmp']",n,0.6,gs,0.6,Stop.bmp,,,
example2,example,1,2025-00-00_00h00.00.000,PGNGS_shapes_600ms_v11r1,2021.1.4,59.88382538,L_circle.bmp,n,0.4346,29.0,3,"['L_circle.bmp', 'L_diamond.bmp']",n,0.6,gs,0.6,Stop.bmp,target,hit,0.4346
example2,example,1,2025-00-00_00h00.00.000,PGNGS_shapes_600ms_v11r1,2021.1.4,59.88382538,L_pentagon.bmp,,,30.0,3,"['L_circle.bmp', 'L_diamond.bmp']",n,0.6,gs,0.6,Stop.bmp,,,
example2,example,1,2025-00-00_00h00.00.000,PGNGS_shapes_600ms_v11r1,2021.1.4,59.88382538,L_square.bmp,,,31.0,3,"['L_circle.bmp', 'L_diamond.bmp']",n,0.6,gs,0.6,Stop.bmp,,,
example2,example,1,2025-00-00_00h00.00.000,PGNGS_shapes_600ms_v11r1,2021.1.4,59.88382538,L_parallelogram.bmp,,,32.0,3,"['L_circle.bmp', 'L_diamond.bmp']",n,0.6,gs,0.6,Stop.bmp,,,
example2,example,1,2025-00-00_00h00.00.000,PGNGS_shapes_600ms_v11r1,2021.1.4,59.88382538,L_HalfOval.bmp,,,33.0,3,"['L_circle.bmp', 'L_diamond.bmp']",n,0.6,gs,0.6,Stop.bmp,,,
example2,example,1,2025-00-00_00h00.00.000,PGNGS_shapes_600ms_v11r1,2021.1.4,59.88382538,L_parallelogram.bmp,,,34.0,3,"['L_circle.bmp', 'L_diamond.bmp']",n,0.6,gs,0.6,Stop.bmp,,,
example2,example,1,2025-00-00_00h00.00.000,PGNGS_shapes_600ms_v11r1,2021.1.4,59.88382538,L_square.bmp,,,35.0,3,"['L_circle.bmp', 'L_diamond.bmp']",n,0.6,gs,0.6,Stop.bmp,,,
example2,example,1,2025-00-00_00h00.00.000,PGNGS_shapes_600ms_v11r1,2021.1.4,59.88382538,L_HalfOval.bmp,,,36.0,3,"['L_circle.bmp', 'L_diamond.bmp']",n,0.6,gs,0.6,Stop.bmp,,,
example2,example,1,2025-00-00_00h00.00.000,PGNGS_shapes_600ms_v11r1,2021.1.4,59.88382538,L_pentagon.bmp,,,37.0,3,"['L_circle.bmp', 'L_diamond.bmp']",n,0.6,gs,0.6,Stop.bmp,,,
example2,example,1,2025-00-00_00h00.00.000,PGNGS_shapes_600ms_v11r1,2021.1.4,59.88382538,L_square.bmp,,,38.0,3,"['L_circle.bmp', 'L_diamond.bmp']",n,0.6,gs,0.6,Stop.bmp,,,
example2,example,1,2025-00-00_00h00.00.000,PGNGS_shapes_600ms_v11r1,2021.1.4,59.88382538,L_diamond.bmp,,,39.0,3,"['L_circle.bmp', 'L_diamond.bmp']",n,0.4,gs,0.4,Stop.bmp,lure,com,0.47340000000000004
example2,example,1,2025-00-00_00h00.00.000,PGNGS_shapes_600ms_v11r1,2021.1.4,59.88382538,Stop.bmp,n,0.0734,40.0,3,"['L_circle.bmp', 'L_diamond.bmp']",n,0.3,gs,0.3,Stop.bmp,,,
example2,example,1,2025-00-00_00h00.00.000,PGNGS_shapes_600ms_v11r1,2021.1.4,59.88382538,L_square.bmp,,,41.0,3,"['L_circle.bmp', 'L_diamond.bmp']",n,0.6,gs,0.6,Stop.bmp,,,
example2,example,1,2025-00-00_00h00.00.000,PGNGS_shapes_600ms_v11r1,2021.1.4,59.88382538,L_HalfOval.bmp,,,42.0,3,"['L_circle.bmp', 'L_diamond.bmp']",n,0.6,gs,0.6,Stop.bmp,,,
example2,example,1,2025-00-00_00h00.00.000,PGNGS_shapes_600ms_v11r1,2021.1.4,59.88382538,L_pentagon.bmp,,,43.0,3,"['L_circle.bmp', 'L_diamond.bmp']",n,0.6,gs,0.6,Stop.bmp,,,
example2,example,1,2025-00-00_00h00.00.000,PGNGS_shapes_600ms_v11r1,2021.1.4,59.88382538,L_parallelogram.bmp,,,44.0,3,"['L_circle.bmp', 'L_diamond.bmp']",n,0.6,gs,0.6,Stop.bmp,,,
example2,example,1,2025-00-00_00h00.00.000,PGNGS_shapes_600ms_v11r1,2021.1.4,59.88382538,L_square.bmp,,,45.0,3,"['L_circle.bmp', 'L_diamond.bmp']",n,0.6,gs,0.6,Stop.bmp,,,
example2,example,1,2025-00-00_00h00.00.000,PGNGS_shapes_600ms_v11r1,2021.1.4,59.88382538,L_pentagon.bmp,,,46.0,3,"['L_circle.bmp', 'L_diamond.bmp']",n,0.6,gs,0.6,Stop.bmp,,,
example2,example,1,2025-00-00_00h00.00.000,PGNGS_shapes_600ms_v11r1,2021.1.4,59.88382538,L_parallelogram.bmp,,,47.0,3,"['L_circle.bmp', 'L_diamond.bmp']",n,0.6,gs,0.6,Stop.bmp,,,
example2,example,1,2025-00-00_00h00.00.000,PGNGS_shapes_600ms_v11r1,2021.1.4,59.88382538,L_diamond.bmp,,,48.0,3,"['L_circle.bmp', 'L_diamond.bmp']",n,0.6,gs,0.6,Stop.bmp,target,om,
example2,example,1,2025-00-00_00h00.00.000,PGNGS_shapes_600ms_v11r1,2021.1.4,59.88382538,L_HalfOval.bmp,,,49.0,3,"['L_circle.bmp', 'L_diamond.bmp']",n,0.6,gs,0.6,Stop.bmp,,,
example2,example,1,2025-00-00_00h00.00.000,PGNGS_shapes_600ms_v11r1,2021.1.4,59.88382538,L_square.bmp,,,50.0,3,"['L_circle.bmp', 'L_diamond.bmp']",n,0.6,gs,0.6,Stop.bmp,,,
example2,example,1,2025-00-00_00h00.00.000,PGNGS_shapes_600ms_v11r1,2021.1.4,59.88382538,L_parallelogram.bmp,,,51.0,3,"['L_circle.bmp', 'L_diamond.bmp']",n,0.6,gs,0.6,Stop.bmp,,,
example2,example,1,2025-00-00_00h00.00.000,PGNGS_shapes_600ms_v11r1,2021.1.4,59.88382538,L_square.bmp,,,52.0,3,"['L_circle.bmp', 'L_diamond.bmp']",n,0.6,gs,0.6,Stop.bmp,,,
example2,example,1,2025-00-00_00h00.00.000,PGNGS_shapes_600ms_v11r1,2021.1.4,59.88382538,L_pentagon.bmp,,,53.0,3,"['L_circle.bmp', 'L_diamond.bmp']",n,0.6,gs,0.6,Stop.bmp,,,
example2,example,1,2025-00-00_00h00.00.000,PGNGS_shapes_600ms_v11r1,2021.1.4,59.88382538,L_HalfOval.bmp,,,54.0,3,"['L_circle.bmp', 'L_diamond.bmp']",n,0.6,gs,0.6,Stop.bmp,,,
example2,example,1,2025-00-00_00h00.00.000,PGNGS_shapes_600ms_v11r1,2021.1.4,59.88382538,L_parallelogram.bmp,,,55.0,3,"['L_circle.bmp', 'L_diamond.bmp']",n,0.6,gs,0.6,Stop.bmp,,,
example2,example,1,2025-00-00_00h00.00.000,PGNGS_shapes_600ms_v11r1,2021.1.4,59.88382538,L_square.bmp,,,56.0,3,"['L_circle.bmp', 'L_diamond.bmp']",n,0.6,gs,0.6,Stop.bmp,,,
example2,example,1,2025-00-00_00h00.00.000,PGNGS_shapes_600ms_v11r1,2021.1.4,59.88382538,L_pentagon.bmp,,,57.0,3,"['L_circle.bmp', 'L_diamond.bmp']",n,0.6,gs,0.6,Stop.bmp,,,
example2,example,1,2025-00-00_00h00.00.000,PGNGS_shapes_600ms_v11r1,2021.1.4,59.88382538,L_HalfOval.bmp,,,58.0,3,"['L_circle.bmp', 'L_diamond.bmp']",n,0.6,gs,0.6,Stop.bmp,,,
example2,example,1,2025-00-00_00h00.00.000,PGNGS_shapes_600ms_v11r1,2021.1.4,59.88382538,L_parallelogram.bmp,,,59.0,3,"['L_circle.bmp', 'L_diamond.bmp']",n,0.6,gs,0.6,Stop.bmp,,,
example2,example,1,2025-00-00_00h00.00.000,PGNGS_shapes_600ms_v11r1,2021.1.4,59.88382538,L_pentagon.bmp,,,60.0,3,"['L_circle.bmp', 'L_diamond.bmp']",n,0.6,gs,0.6,Stop.bmp,,,
example2,example,1,2025-00-00_00h00.00.000,PGNGS_shapes_600ms_v11r1,2021.1.4,59.88382538,L_circle.bmp,,,61.0,3,"['L_circle.bmp', 'L_diamond.bmp']",n,0.3,gs,0.3,Stop.bmp,lure,rej,
example2,example,1,2025-00-00_00h00.00.000,PGNGS_shapes_600ms_v11r1,2021.1.4,59.88382538,Stop.bmp,,,62.0,3,"['L_circle.bmp', 'L_diamond.bmp']",n,0.4,gs,0.4,Stop.bmp,,,
example2,example,1,2025-00-00_00h00.00.000,PGNGS_shapes_600ms_v11r1,2021.1.4,59.88382538,L_square.bmp,,,63.0,3,"['L_circle.bmp', 'L_diamond.bmp']",n,0.6,gs,0.6,Stop.bmp,,,
example2,example,1,2025-00-00_00h00.00.000,PGNGS_shapes_600ms_v11r1,2021.1.4,59.88382538,L_HalfOval.bmp,,,64.0,3,"['L_circle.bmp', 'L_diamond.bmp']",n,0.6,gs,0.6,Stop.bmp,,,
example2,example,1,2025-00-00_00h00.00.000,PGNGS_shapes_600ms_v11r1,2021.1.4,59.88382538,L_pentagon.bmp,,,65.0,3,"['L_circle.bmp', 'L_diamond.bmp']",n,0.6,gs,0.6,Stop.bmp,,,
example2,example,1,2025-00-00_00h00.00.000,PGNGS_shapes_600ms_v11r1,2021.1.4,59.88382538,L_HalfOval.bmp,,,66.0,3,"['L_circle.bmp', 'L_diamond.bmp']",n,0.6,gs,0.6,Stop.bmp,,,
example2,example,1,2025-00-00_00h00.00.000,PGNGS_shapes_600ms_v11r1,2021.1.4,59.88382538,L_parallelogram.bmp,,,67.0,3,"['L_circle.bmp', 'L_diamond.bmp']",n,0.6,gs,0.6,Stop.bmp,,,
example2,example,1,2025-00-00_00h00.00.000,PGNGS_shapes_600ms_v11r1,2021.1.4,59.88382538,L_square.bmp,,,68.0,3,"['L_circle.bmp', 'L_diamond.bmp']",n,0.6,gs,0.6,Stop.bmp,,,
example2,example,1,2025-00-00_00h00.00.000,PGNGS_shapes_600ms_v11r1,2021.1.4,59.88382538,L_pentagon.bmp,,,69.0,3,"['L_circle.bmp', 'L_diamond.bmp']",n,0.6,gs,0.6,Stop.bmp,,,
example2,example,1,2025-00-00_00h00.00.000,PGNGS_shapes_600ms_v11r1,2021.1.4,59.88382538,L_parallelogram.bmp,,,70.0,3,"['L_circle.bmp', 'L_diamond.bmp']",n,0.6,gs,0.6,Stop.bmp,,,
example2,example,1,2025-00-00_00h00.00.000,PGNGS_shapes_600ms_v11r1,2021.1.4,59.88382538,L_square.bmp,,,71.0,3,"['L_circle.bmp', 'L_diamond.bmp']",n,0.6,gs,0.6,Stop.bmp,,,
example2,example,1,2025-00-00_00h00.00.000,PGNGS_shapes_600ms_v11r1,2021.1.4,59.88382538,L_diamond.bmp,n,0.4033,72.0,3,"['L_circle.bmp', 'L_diamond.bmp']",n,0.6,gs,0.6,Stop.bmp,target,hit,0.4033
example2,example,1,2025-00-00_00h00.00.000,PGNGS_shapes_600ms_v11r1,2021.1.4,59.88382538,L_square.bmp,,,73.0,3,"['L_circle.bmp', 'L_diamond.bmp']",n,0.6,gs,0.6,Stop.bmp,,,
example2,example,1,2025-00-00_00h00.00.000,PGNGS_shapes_600ms_v11r1,2021.1.4,59.88382538,L_HalfOval.bmp,,,74.0,3,"['L_circle.bmp', 'L_diamond.bmp']",n,0.6,gs,0.6,Stop.bmp,,,
example2,example,1,2025-00-00_00h00.00.000,PGNGS_shapes_600ms_v11r1,2021.1.4,59.88382538,L_circle.bmp,,,75.0,3,"['L_circle.bmp', 'L_diamond.bmp']",n,0.6,gs,0.6,Stop.bmp,target,om,
example2,example,1,2025-00-00_00h00.00.000,PGNGS_shapes_600ms_v11r1,2021.1.4,59.88382538,L_pentagon.bmp,,,76.0,3,"['L_circle.bmp', 'L_diamond.bmp']",n,0.6,gs,0.6,Stop.bmp,,,
example2,example,1,2025-00-00_00h00.00.000,PGNGS_shapes_600ms_v11r1,2021.1.4,59.88382538,L_square.bmp,,,77.0,3,"['L_circle.bmp', 'L_diamond.bmp']",n,0.6,gs,0.6,Stop.bmp,,,
example2,example,1,2025-00-00_00h00.00.000,PGNGS_shapes_600ms_v11r1,2021.1.4,59.88382538,L_parallelogram.bmp,,,78.0,3,"['L_circle.bmp', 'L_diamond.bmp']",n,0.6,gs,0.6,Stop.bmp,,,
example2,example,1,2025-00-00_00h00.00.000,PGNGS_shapes_600ms_v11r1,2021.1.4,59.88382538,L_diamond.bmp,n,0.5371,79.0,3,"['L_circle.bmp', 'L_diamond.bmp']",n,0.6,gs,0.6,Stop.bmp,target,hit,0.5371
example2,example,1,2025-00-00_00h00.00.000,PGNGS_shapes_600ms_v11r1,2021.1.4,59.88382538,L_HalfOval.bmp,,,80.0,3,"['L_circle.bmp', 'L_diamond.bmp']",n,0.6,gs,0.6,Stop.bmp,,,
example2,example,1,2025-00-00_00h00.00.000,PGNGS_shapes_600ms_v11r1,2021.1.4,59.88382538,L_pentagon.bmp,,,81.0,3,"['L_circle.bmp', 'L_diamond.bmp']",n,0.6,gs,0.6,Stop.bmp,,,
example2,example,1,2025-00-00_00h00.00.000,PGNGS_shapes_600ms_v11r1,2021.1.4,59.88382538,L_square.bmp,,,82.0,3,"['L_circle.bmp', 'L_diamond.bmp']",n,0.6,gs,0.6,Stop.bmp,,,
example2,example,1,2025-00-00_00h00.00.000,PGNGS_shapes_600ms_v11r1,2021.1.4,59.88382538,L_HalfOval.bmp,,,83.0,3,"['L_circle.bmp', 'L_diamond.bmp']",n,0.6,gs,0.6,Stop.bmp,,,
example2,example,1,2025-00-00_00h00.00.000,PGNGS_shapes_600ms_v11r1,2021.1.4,59.88382538,L_circle.bmp,,,84.0,3,"['L_circle.bmp', 'L_diamond.bmp']",n,0.4,gs,0.4,Stop.bmp,lure,com,0.43860000000000005
example2,example,1,2025-00-00_00h00.00.000,PGNGS_shapes_600ms_v11r1,2021.1.4,59.88382538,Stop.bmp,n,0.0386,85.0,3,"['L_circle.bmp', 'L_diamond.bmp']",n,0.3,gs,0.3,Stop.bmp,,,
example2,example,1,2025-00-00_00h00.00.000,PGNGS_shapes_600ms_v11r1,2021.1.4,59.88382538,L_pentagon.bmp,,,86.0,3,"['L_circle.bmp', 'L_diamond.bmp']",n,0.6,gs,0.6,Stop.bmp,,,
example2,example,1,2025-00-00_00h00.00.000,PGNGS_shapes_600ms_v11r1,2021.1.4,59.88382538,L_parallelogram.bmp,,,87.0,3,"['L_circle.bmp', 'L_diamond.bmp']",n,0.6,gs,0.6,Stop.bmp,,,
example2,example,1,2025-00-00_00h00.00.000,PGNGS_shapes_600ms_v11r1,2021.1.4,59.88382538,L_HalfOval.bmp,,,88.0,3,"['L_circle.bmp', 'L_diamond.bmp']",n,0.6,gs,0.6,Stop.bmp,,,
example2,example,1,2025-00-00_00h00.00.000,PGNGS_shapes_600ms_v11r1,2021.1.4,59.88382538,L_diamond.bmp,n,0.5516,89.0,3,"['L_circle.bmp', 'L_diamond.bmp']",n,0.6,gs,0.6,Stop.bmp,target,hit,0.5516
example2,example,1,2025-00-00_00h00.00.000,PGNGS_shapes_600ms_v11r1,2021.1.4,59.88382538,L_square.bmp,,,90.0,3,"['L_circle.bmp', 'L_diamond.bmp']",n,0.6,gs,0.6,Stop.bmp,,,
example2,example,1,2025-00-00_00h00.00.000,PGNGS_shapes_600ms_v11r1,2021.1.4,59.88382538,L_pentagon.bmp,,,91.0,3,"['L_circle.bmp', 'L_diamond.bmp']",n,0.6,gs,0.6,Stop.bmp,,,
example2,example,1,2025-00-00_00h00.00.000,PGNGS_shapes_600ms_v11r1,2021.1.4,59.88382538,L_circle.bmp,n,0.466,92.0,3,"['L_circle.bmp', 'L_diamond.bmp']",n,0.6,gs,0.6,Stop.bmp,target,hit,0.466
example2,example,1,2025-00-00_00h00.00.000,PGNGS_shapes_600ms_v11r1,2021.1.4,59.88382538,L_parallelogram.bmp,,,93.0,3,"['L_circle.bmp', 'L_diamond.bmp']",n,0.6,gs,0.6,Stop.bmp,,,
example2,example,1,2025-00-00_00h00.00.000,PGNGS_shapes_600ms_v11r1,2021.1.4,59.88382538,L_square.bmp,,,94.0,3,"['L_circle.bmp', 'L_diamond.bmp']",n,0.6,gs,0.6,Stop.bmp,,,
example2,example,1,2025-00-00_00h00.00.000,PGNGS_shapes_600ms_v11r1,2021.1.4,59.88382538,L_HalfOval.bmp,,,95.0,3,"['L_circle.bmp', 'L_diamond.bmp']",n,0.6,gs,0.6,Stop.bmp,,,
example2,example,1,2025-00-00_00h00.00.000,PGNGS_shapes_600ms_v11r1,2021.1.4,59.88382538,L_diamond.bmp,n,0.4428,96.0,3,"['L_circle.bmp', 'L_diamond.bmp']",n,0.6,gs,0.6,Stop.bmp,target,hit,0.4428
example2,example,1,2025-00-00_00h00.00.000,PGNGS_shapes_600ms_v11r1,2021.1.4,59.88382538,L_pentagon.bmp,,,97.0,3,"['L_circle.bmp', 'L_diamond.bmp']",n,0.6,gs,0.6,Stop.bmp,,,
example2,example,1,2025-00-00_00h00.00.000,PGNGS_shapes_600ms_v11r1,2021.1.4,59.88382538,L_parallelogram.bmp,,,98.0,3,"['L_circle.bmp', 'L_diamond.bmp']",n,0.6,gs,0.6,Stop.bmp,,,
example2,example,1,2025-00-00_00h00.00.000,PGNGS_shapes_600ms_v11r1,2021.1.4,59.88382538,L_circle.bmp,n,0.4231,99.0,3,"['L_circle.bmp', 'L_diamond.bmp']",n,0.6,gs,0.6,Stop.bmp,target,hit,0.4231
example2,example,1,2025-00-00_00h00.00.000,PGNGS_shapes_600ms_v11r1,2021.1.4,59.88382538,L_HalfOval.bmp,,,100.0,3,"['L_circle.bmp', 'L_diamond.bmp']",n,0.6,gs,0.6,Stop.bmp,,,
example2,example,1,2025-00-00_00h00.00.000,PGNGS_shapes_600ms_v11r1,2021.1.4,59.88382538,L_square.bmp,,,101.0,3,"['L_circle.bmp', 'L_diamond.bmp']",n,0.6,gs,0.6,Stop.bmp,,,
example2,example,1,2025-00-00_00h00.00.000,PGNGS_shapes_600ms_v11r1,2021.1.4,59.88382538,L_pentagon.bmp,,,102.0,3,"['L_circle.bmp', 'L_diamond.bmp']",n,0.6,gs,0.6,Stop.bmp,,,
example2,example,1,2025-00-00_00h00.00.000,PGNGS_shapes_600ms_v11r1,2021.1.4,59.88382538,L_diamond.bmp,n,0.4645,103.0,3,"['L_circle.bmp', 'L_diamond.bmp']",n,0.6,gs,0.6,Stop.bmp,target,hit,0.4645
example2,example,1,2025-00-00_00h00.00.000,PGNGS_shapes_600ms_v11r1,2021.1.4,59.88382538,L_parallelogram.bmp,,,104.0,3,"['L_circle.bmp', 'L_diamond.bmp']",n,0.6,gs,0.6,Stop.bmp,,,
example2,example,1,2025-00-00_00h00.00.000,PGNGS_shapes_600ms_v11r1,2021.1.4,59.88382538,L_HalfOval.bmp,,,105.0,3,"['L_circle.bmp', 'L_diamond.bmp']",n,0.6,gs,0.6,Stop.bmp,,,
example2,example,1,2025-00-00_00h00.00.000,PGNGS_shapes_600ms_v11r1,2021.1.4,59.88382538,L_parallelogram.bmp,,,106.0,3,"['L_circle.bmp', 'L_diamond.bmp']",n,0.6,gs,0.6,Stop.bmp,,,
example2,example,1,2025-00-00_00h00.00.000,PGNGS_shapes_600ms_v11r1,2021.1.4,59.88382538,L_pentagon.bmp,,,107.0,3,"['L_circle.bmp', 'L_diamond.bmp']",n,0.6,gs,0.6,Stop.bmp,,,
example2,example,1,2025-00-00_00h00.00.000,PGNGS_shapes_600ms_v11r1,2021.1.4,59.88382538,L_circle.bmp,,,108.0,3,"['L_circle.bmp', 'L_diamond.bmp']",n,0.3,gs,0.3,Stop.bmp,lure,rej,
example2,example,1,2025-00-00_00h00.00.000,PGNGS_shapes_600ms_v11r1,2021.1.4,59.88382538,Stop.bmp,,,109.0,3,"['L_circle.bmp', 'L_diamond.bmp']",n,0.4,gs,0.4,Stop.bmp,,,
example2,example,1,2025-00-00_00h00.00.000,PGNGS_shapes_600ms_v11r1,2021.1.4,59.88382538,L_pentagon.bmp,,,110.0,3,"['L_circle.bmp', 'L_diamond.bmp']",n,0.6,gs,0.6,Stop.bmp,,,
example2,example,1,2025-00-00_00h00.00.000,PGNGS_shapes_600ms_v11r1,2021.1.4,59.88382538,L_HalfOval.bmp,,,111.0,3,"['L_circle.bmp', 'L_diamond.bmp']",n,0.6,gs,0.6,Stop.bmp,,,
example2,example,1,2025-00-00_00h00.00.000,PGNGS_shapes_600ms_v11r1,2021.1.4,59.88382538,L_parallelogram.bmp,,,112.0,3,"['L_circle.bmp', 'L_diamond.bmp']",n,0.6,gs,0.6,Stop.bmp,,,
example2,example,1,2025-00-00_00h00.00.000,PGNGS_shapes_600ms_v11r1,2021.1.4,59.88382538,L_pentagon.bmp,,,113.0,3,"['L_circle.bmp', 'L_diamond.bmp']",n,0.6,gs,0.6,Stop.bmp,,,
example2,example,1,2025-00-00_00h00.00.000,PGNGS_shapes_600ms_v11r1,2021.1.4,59.88382538,L_diamond.bmp,n,0.4501,114.0,3,"['L_circle.bmp', 'L_diamond.bmp']",n,0.6,gs,0.6,Stop.bmp,target,hit,0.4501
example2,example,1,2025-00-00_00h00.00.000,PGNGS_shapes_600ms_v11r1,2021.1.4,59.88382538,L_HalfOval.bmp,,,115.0,3,"['L_circle.bmp', 'L_diamond.bmp']",n,0.6,gs,0.6,Stop.bmp,,,
example2,example,1,2025-00-00_00h00.00.000,PGNGS_shapes_600ms_v11r1,2021.1.4,59.88382538,L_square.bmp,,,116.0,3,"['L_circle.bmp', 'L_diamond.bmp']",n,0.6,gs,0.6,Stop.bmp,,,
example2,example,1,2025-00-00_00h00.00.000,PGNGS_shapes_600ms_v11r1,2021.1.4,59.88382538,L_pentagon.bmp,,,117.0,3,"['L_circle.bmp', 'L_diamond.bmp']",n,0.6,gs,0.6,Stop.bmp,,,
example2,example,1,2025-00-00_00h00.00.000,PGNGS_shapes_600ms_v11r1,2021.1.4,59.88382538,L_square.bmp,,,118.0,3,"['L_circle.bmp', 'L_diamond.bmp']",n,0.6,gs,0.6,Stop.bmp,,,
example2,example,1,2025-00-00_00h00.00.000,PGNGS_shapes_600ms_v11r1,2021.1.4,59.88382538,L_HalfOval.bmp,,,119.0,3,"['L_circle.bmp', 'L_diamond.bmp']",n,0.6,gs,0.6,Stop.bmp,,,
example2,example,1,2025-00-00_00h00.00.000,PGNGS_shapes_600ms_v11r1,2021.1.4,59.88382538,L_parallelogram.bmp,,,120.0,3,"['L_circle.bmp', 'L_diamond.bmp']",n,0.6,gs,0.6,Stop.bmp,,,
example2,example,1,2025-00-00_00h00.00.000,PGNGS_shapes_600ms_v11r1,2021.1.4,59.88382538,L_circle.bmp,,,121.0,3,"['L_circle.bmp', 'L_diamond.bmp']",n,0.25,gs,0.25,Stop.bmp,lure,com,0.4859
example2,example,1,2025-00-00_00h00.00.000,PGNGS_shapes_600ms_v11r1,2021.1.4,59.88382538,Stop.bmp,n,0.2359,122.0,3,"['L_circle.bmp', 'L_diamond.bmp']",n,0.45,gs,0.45,Stop.bmp,,,
example2,example,1,2025-00-00_00h00.00.000,PGNGS_shapes_600ms_v11r1,2021.1.4,59.88382538,L_parallelogram.bmp,,,123.0,3,"['L_circle.bmp', 'L_diamond.bmp']",n,0.6,gs,0.6,Stop.bmp,,,
example2,example,1,2025-00-00_00h00.00.000,PGNGS_shapes_600ms_v11r1,2021.1.4,59.88382538,L_square.bmp,,,124.0,3,"['L_circle.bmp', 'L_diamond.bmp']",n,0.6,gs,0.6,Stop.bmp,,,
example2,example,1,2025-00-00_00h00.00.000,PGNGS_shapes_600ms_v11r1,2021.1.4,59.88382538,L_diamond.bmp,n,0.5322,125.0,3,"['L_circle.bmp', 'L_diamond.bmp']",n,0.6,gs,0.6,Stop.bmp,target,hit,0.5322
example2,example,1,2025-00-00_00h00.00.000,PGNGS_shapes_600ms_v11r1,2021.1.4,59.88382538,L_HalfOval.bmp,,,126.0,3,"['L_circle.bmp', 'L_diamond.bmp']",n,0.6,gs,0.6,Stop.bmp,,,
example2,example,1,2025-00-00_00h00.00.000,PGNGS_shapes_600ms_v11r1,2021.1.4,59.88382538,L_pentagon.bmp,,,127.0,3,"['L_circle.bmp', 'L_diamond.bmp']",n,0.6,gs,0.6,Stop.bmp,,,
example2,example,1,2025-00-00_00h00.00.000,PGNGS_shapes_600ms_v11r1,2021.1.4,59.88382538,L_square.bmp,,,128.0,3,"['L_circle.bmp', 'L_diamond.bmp']",n,0.6,gs,0.6,Stop.bmp,,,
example2,example,1,2025-00-00_00h00.00.000,PGNGS_shapes_600ms_v11r1,2021.1.4,59.88382538,L_circle.bmp,n,0.5156,129.0,3,"['L_circle.bmp', 'L_diamond.bmp']",n,0.6,gs,0.6,Stop.bmp,target,hit,0.5156
example2,example,1,2025-00-00_00h00.00.000,PGNGS_shapes_600ms_v11r1,2021.1.4,59.88382538,L_square.bmp,,,130.0,3,"['L_circle.bmp', 'L_diamond.bmp']",n,0.6,gs,0.6,Stop.bmp,,,
example2,example,1,2025-00-00_00h00.00.000,PGNGS_shapes_600ms_v11r1,2021.1.4,59.88382538,L_HalfOval.bmp,,,131.0,3,"['L_circle.bmp', 'L_diamond.bmp']",n,0.6,gs,0.6,Stop.bmp,,,
example2,example,1,2025-00-00_00h00.00.000,PGNGS_shapes_600ms_v11r1,2021.1.4,59.88382538,L_diamond.bmp,,,132.0,3,"['L_circle.bmp', 'L_diamond.bmp']",n,0.6,gs,0.6,Stop.bmp,target,om,
example2,example,1,2025-00-00_00h00.00.000,PGNGS_shapes_600ms_v11r1,2021.1.4,59.88382538,L_square.bmp,,,133.0,3,"['L_circle.bmp', 'L_diamond.bmp']",n,0.6,gs,0.6,Stop.bmp,,,
example2,example,1,2025-00-00_00h00.00.000,PGNGS_shapes_600ms_v11r1,2021.1.4,59.88382538,L_HalfOval.bmp,,,134.0,3,"['L_circle.bmp', 'L_diamond.bmp']",n,0.6,gs,0.6,Stop.bmp,,,
example2,example,1,2025-00-00_00h00.00.000,PGNGS_shapes_600ms_v11r1,2021.1.4,59.88382538,L_parallelogram.bmp,,,135.0,3,"['L_circle.bmp', 'L_diamond.bmp']",n,0.6,gs,0.6,Stop.bmp,,,
example2,example,1,2025-00-00_00h00.00.000,PGNGS_shapes_600ms_v11r1,2021.1.4,59.88382538,L_pentagon.bmp,,,136.0,3,"['L_circle.bmp', 'L_diamond.bmp']",n,0.6,gs,0.6,Stop.bmp,,,
example2,example,1,2025-00-00_00h00.00.000,PGNGS_shapes_600ms_v11r1,2021.1.4,59.88382538,L_square.bmp,,,137.0,3,"['L_circle.bmp', 'L_diamond.bmp']",n,0.6,gs,0.6,Stop.bmp,,,
example2,example,1,2025-00-00_00h00.00.000,PGNGS_shapes_600ms_v11r1,2021.1.4,59.88382538,L_pentagon.bmp,,,138.0,3,"['L_circle.bmp', 'L_diamond.bmp']",n,0.6,gs,0.6,Stop.bmp,,,
example2,example,1,2025-00-00_00h00.00.000,PGNGS_shapes_600ms_v11r1,2021.1.4,59.88382538,L_HalfOval.bmp,,,139.0,3,"['L_circle.bmp', 'L_diamond.bmp']",n,0.6,gs,0.6,Stop.bmp,,,
example2,example,1,2025-00-00_00h00.00.000,PGNGS_shapes_600ms_v11r1,2021.1.4,59.88382538,L_square.bmp,,,140.0,3,"['L_circle.bmp', 'L_diamond.bmp']",n,0.6,gs,0.6,Stop.bmp,,,
example2,example,1,2025-00-00_00h00.00.000,PGNGS_shapes_600ms_v11r1,2021.1.4,59.88382538,L_pentagon.bmp,,,141.0,3,"['L_circle.bmp', 'L_diamond.bmp']",n,0.6,gs,0.6,Stop.bmp,,,
example2,example,1,2025-00-00_00h00.00.000,PGNGS_shapes_600ms_v11r1,2021.1.4,59.88382538,L_HalfOval.bmp,,,142.0,3,"['L_circle.bmp', 'L_diamond.bmp']",n,0.6,gs,0.6,Stop.bmp,,,
example2,example,1,2025-00-00_00h00.00.000,PGNGS_shapes_600ms_v11r1,2021.1.4,59.88382538,L_square.bmp,,,143.0,3,"['L_circle.bmp', 'L_diamond.bmp']",n,0.6,gs,0.6,Stop.bmp,,,
